"view_history","rt","trialid","procedure","trial_type","trial_index","time_elapsed","internal_node_id","stimulus","button_pressed","condition_within","slider_start","response"
"[{""page_index"":0,""viewing_time"":236},{""page_index"":1,""viewing_time"":240}]","476","Instructions","HRPVBpost","instructions","264","136860","0.0-245.0","","","","",""
"[{""page_index"":0,""viewing_time"":251}]","251","Instructions_02","HRPVBpost","instructions","265","137112","0.0-246.0","","","","",""
"","231.93499999982305","HRPVBpost_06_00","HRPVBpost","html-button-response","266","137345","0.0-247.0-0.0","Paro cardíaco","0","Paro cardíaco","",""
"","363.19499999989057","HRPVBpost_06_01","HRPVBpost","html-slider-response","267","137710","0.0-247.0-1.0","cesarea","","Paro cardíaco; cesarea","50","51.6"
"","360.20000000097207","HRPVBpost_06_02","HRPVBpost","html-slider-response","268","138072","0.0-247.0-2.0","vaginal","","Paro cardíaco; vaginal","50","51.3"
"","253.82999999966705","HRPVBpost_08_00","HRPVBpost","html-button-response","269","138326","0.0-247.0-0.1","Infección de la herida","0","Infección de la herida","",""
"","389.67000000050757","HRPVBpost_08_01","HRPVBpost","html-slider-response","270","138717","0.0-247.0-1.1","cesarea","","Infección de la herida; cesarea","50","45.7"
"","377.96499999967637","HRPVBpost_08_02","HRPVBpost","html-slider-response","271","139097","0.0-247.0-2.1","vaginal","","Infección de la herida; vaginal","50","50.6"
"","235.04499999943073","HRPVBpost_10_00","HRPVBpost","html-button-response","272","139332","0.0-247.0-0.2","Hospitalización de la madre en cuidados intensivos","0","Hospitalización de la madre en cuidados intensivos","",""
"","365.7250000014901","HRPVBpost_10_01","HRPVBpost","html-slider-response","273","139699","0.0-247.0-1.2","cesarea","","Hospitalización de la madre en cuidados intensivos; cesarea","50","48.2"
"","372.4099999999744","HRPVBpost_10_02","HRPVBpost","html-slider-response","274","140073","0.0-247.0-2.2","vaginal","","Hospitalización de la madre en cuidados intensivos; vaginal","50","51.5"
"","228.17000000030384","HRPVBpost_07_00","HRPVBpost","html-button-response","275","140302","0.0-247.0-0.3","Histerectomía (extracción del útero)","0","Histerectomía (extracción del útero)","",""
"","366.0700000000652","HRPVBpost_07_02","HRPVBpost","html-slider-response","276","140669","0.0-247.0-1.3","vaginal","","Histerectomía (extracción del útero); vaginal","50","53.6"
"","364.3899999988207","HRPVBpost_07_01","HRPVBpost","html-slider-response","277","141035","0.0-247.0-2.3","cesarea","","Histerectomía (extracción del útero); cesarea","50","53.9"
"","233.90000000107102","HRPVBpost_05_00","HRPVBpost","html-button-response","278","141270","0.0-247.0-0.4","Complicaciones de la anestesia","0","Complicaciones de la anestesia","",""
"","372.19000000006054","HRPVBpost_05_01","HRPVBpost","html-slider-response","279","141643","0.0-247.0-1.4","cesarea","","Complicaciones de la anestesia; cesarea","50","48.6"
"","354.27499999970314","HRPVBpost_05_02","HRPVBpost","html-slider-response","280","141999","0.0-247.0-2.4","vaginal","","Complicaciones de la anestesia; vaginal","50","51.4"
"","236.76999999949476","HRPVBpost_09_00","HRPVBpost","html-button-response","281","142236","0.0-247.0-0.5","Lesión de la vagina","0","Lesión de la vagina","",""
"","358.45499999960884","HRPVBpost_09_02","HRPVBpost","html-slider-response","282","142596","0.0-247.0-1.5","vaginal","","Lesión de la vagina; vaginal","50","50.2"
"","355.9449999993376","HRPVBpost_09_01","HRPVBpost","html-slider-response","283","142953","0.0-247.0-2.5","cesarea","","Lesión de la vagina; cesarea","50","47.2"
"","224.50500000015018","HRPVBpost_11_00","HRPVBpost","html-button-response","284","143179","0.0-247.0-0.6","Depresión post parto","0","Depresión post parto","",""
"","353.88500000044587","HRPVBpost_11_01","HRPVBpost","html-slider-response","285","143534","0.0-247.0-1.6","cesarea","","Depresión post parto; cesarea","50","49.8"
"","370.59000000046217","HRPVBpost_11_02","HRPVBpost","html-slider-response","286","143906","0.0-247.0-2.6","vaginal","","Depresión post parto; vaginal","50","53.9"
"[{""page_index"":0,""viewing_time"":234}]","234","Instructions_01","HRPVBpost","instructions","287","144140","0.0-248.0","","","","",""
"","220.62000000005355","HRPVBpost_01_00","HRPVBpost","html-button-response","288","144362","0.0-249.0-0.0","Problemas respiratorios del recién nacido","0","Problemas respiratorios del recién nacido","",""
"","380.52500000048894","HRPVBpost_01_01","HRPVBpost","html-slider-response","289","144743","0.0-249.0-1.0","cesarea","","Problemas respiratorios del recién nacido; cesarea","50","45.4"
"","394.02999999944586","HRPVBpost_01_02","HRPVBpost","html-slider-response","290","145139","0.0-249.0-2.0","vaginal","","Problemas respiratorios del recién nacido; vaginal","50","53.6"
"","227.47999999954482","HRPVBpost_03_00","HRPVBpost","html-button-response","291","145367","0.0-249.0-0.1","Hospitalización en cuidados intensivos neonatales","0","Hospitalización en cuidados intensivos neonatales","",""
"","369.23500000010245","HRPVBpost_03_01","HRPVBpost","html-slider-response","292","145737","0.0-249.0-1.1","cesarea","","Hospitalización en cuidados intensivos neonatales; cesarea","50","47.5"
"","379.48499999949127","HRPVBpost_03_02","HRPVBpost","html-slider-response","293","146118","0.0-249.0-2.1","vaginal","","Hospitalización en cuidados intensivos neonatales; vaginal","50","55"
"","235.23999999996158","HRPVBpost_04_00","HRPVBpost","html-button-response","294","146354","0.0-249.0-0.2","Dificultades para inicio temprano de lactancia materna","0","Dificultades para inicio temprano de lactancia materna","",""
"","378.0850000002538","HRPVBpost_04_01","HRPVBpost","html-slider-response","295","146733","0.0-249.0-1.2","cesarea","","Dificultades para inicio temprano de lactancia materna; cesarea","50","50.9"
"","375.1549999997078","HRPVBpost_04_02","HRPVBpost","html-slider-response","296","147110","0.0-249.0-2.2","vaginal","","Dificultades para inicio temprano de lactancia materna; vaginal","50","46.7"
"","228.61000000013155","HRPVBpost_02_00","HRPVBpost","html-button-response","297","147339","0.0-249.0-0.3","Lesión en el cerebro del bebe por falta de oxígeno","0","Lesión en el cerebro del bebe por falta de oxígeno","",""
"","384.85000000035507","HRPVBpost_02_02","HRPVBpost","html-slider-response","298","147725","0.0-249.0-1.3","vaginal","","Lesión en el cerebro del bebe por falta de oxígeno; vaginal","50","53.5"
"","378.8249999997788","HRPVBpost_02_01","HRPVBpost","html-slider-response","299","148105","0.0-249.0-2.3","cesarea","","Lesión en el cerebro del bebe por falta de oxígeno; cesarea","50","46.9"
