"view_history","rt","trialid","procedure","trial_type","trial_index","time_elapsed","internal_node_id","stimulus","button_pressed","condition_within","slider_start","response"
"[{""page_index"":0,""viewing_time"":439}]","439","Instructions_01","HRPVB","instructions","702","564515","0.0-764.0","","","","",""
"[{""page_index"":0,""viewing_time"":413}]","413","Instructions_02","HRPVB","instructions","703","564929","0.0-765.0","","","","",""
"","354.5","HRPVB_02_00","HRPVB","html-button-response","704","565287","0.0-766.0-0.0","Lesión en el cerebro del bebe por falta de oxígeno","0","Lesión en el cerebro del bebe por falta de oxígeno","",""
"","583.6000000014901","HRPVB_02_02","HRPVB","html-slider-response","705","565874","0.0-766.0-1.0","vaginal","","Lesión en el cerebro del bebe por falta de oxígeno; vaginal","50","52.9"
"","702.1999999992549","HRPVB_02_01","HRPVB","html-slider-response","706","566580","0.0-766.0-2.0","cesarea","","Lesión en el cerebro del bebe por falta de oxígeno; cesarea","50","50.3"
"","309.0999999977648","HRPVB_01_00","HRPVB","html-button-response","707","566892","0.0-766.0-0.1","Problemas respiratorios del recién nacido","0","Problemas respiratorios del recién nacido","",""
"","522.8000000007451","HRPVB_01_02","HRPVB","html-slider-response","708","567418","0.0-766.0-1.1","vaginal","","Problemas respiratorios del recién nacido; vaginal","50","48.2"
"","670.8999999985099","HRPVB_01_01","HRPVB","html-slider-response","709","568094","0.0-766.0-2.1","cesarea","","Problemas respiratorios del recién nacido; cesarea","50","45.8"
"","416.1000000014901","HRPVB_04_00","HRPVB","html-button-response","710","568513","0.0-766.0-0.2","Dificultades para inicio temprano de lactancia materna","0","Dificultades para inicio temprano de lactancia materna","",""
"","563.5","HRPVB_04_02","HRPVB","html-slider-response","711","569079","0.0-766.0-1.2","vaginal","","Dificultades para inicio temprano de lactancia materna; vaginal","50","46.8"
"","574.4000000022352","HRPVB_04_01","HRPVB","html-slider-response","712","569656","0.0-766.0-2.2","cesarea","","Dificultades para inicio temprano de lactancia materna; cesarea","50","54.2"
"","413.5","HRPVB_03_00","HRPVB","html-button-response","713","570072","0.0-766.0-0.3","Hospitalización en cuidados intensivos neonatales","0","Hospitalización en cuidados intensivos neonatales","",""
"","601.8999999985099","HRPVB_03_02","HRPVB","html-slider-response","714","570675","0.0-766.0-1.3","vaginal","","Hospitalización en cuidados intensivos neonatales; vaginal","50","50.3"
"","563.3999999985099","HRPVB_03_01","HRPVB","html-slider-response","715","571241","0.0-766.0-2.3","cesarea","","Hospitalización en cuidados intensivos neonatales; cesarea","50","48.1"
"[{""page_index"":0,""viewing_time"":414}]","415","Instructions_02","HRPVB","instructions","716","571657","0.0-767.0","","","","",""
"","425.6000000014901","HRPVB_10_00","HRPVB","html-button-response","717","572086","0.0-768.0-0.0","Hospitalización de la madre en cuidados intensivos","0","Hospitalización de la madre en cuidados intensivos","",""
"","539","HRPVB_10_01","HRPVB","html-slider-response","718","572627","0.0-768.0-1.0","cesarea","","Hospitalización de la madre en cuidados intensivos; cesarea","50","52.9"
"","663.5","HRPVB_10_02","HRPVB","html-slider-response","719","573293","0.0-768.0-2.0","vaginal","","Hospitalización de la madre en cuidados intensivos; vaginal","50","50.3"
"","430.9000000022352","HRPVB_08_00","HRPVB","html-button-response","720","573726","0.0-768.0-0.1","Infección de la herida","0","Infección de la herida","",""
"","505.5","HRPVB_08_01","HRPVB","html-slider-response","721","574234","0.0-768.0-1.1","cesarea","","Infección de la herida; cesarea","50","48.2"
"","623.5","HRPVB_08_02","HRPVB","html-slider-response","722","574860","0.0-768.0-2.1","vaginal","","Infección de la herida; vaginal","50","45.8"
"","460.80000000074506","HRPVB_09_00","HRPVB","html-button-response","723","575322","0.0-768.0-0.2","Lesión de la vagina","0","Lesión de la vagina","",""
"","572.1000000014901","HRPVB_09_01","HRPVB","html-slider-response","724","575897","0.0-768.0-1.2","cesarea","","Lesión de la vagina; cesarea","50","46.8"
"","504.5","HRPVB_09_02","HRPVB","html-slider-response","725","576407","0.0-768.0-2.2","vaginal","","Lesión de la vagina; vaginal","50","54.2"
"","512.8999999985099","HRPVB_05_00","HRPVB","html-button-response","726","576922","0.0-768.0-0.3","Complicaciones de la anestesia","0","Complicaciones de la anestesia","",""
"","581.5999999977648","HRPVB_05_01","HRPVB","html-slider-response","727","577506","0.0-768.0-1.3","cesarea","","Complicaciones de la anestesia; cesarea","50","50.3"
"","609.3999999985099","HRPVB_05_02","HRPVB","html-slider-response","728","578118","0.0-768.0-2.3","vaginal","","Complicaciones de la anestesia; vaginal","50","48.1"
"","459.6000000014901","HRPVB_07_00","HRPVB","html-button-response","729","578579","0.0-768.0-0.4","Histerectomía (extracción del útero)","0","Histerectomía (extracción del útero)","",""
"","640.1000000014901","HRPVB_07_01","HRPVB","html-slider-response","730","579223","0.0-768.0-1.4","cesarea","","Histerectomía (extracción del útero); cesarea","50","49.9"
"","492.1000000014901","HRPVB_07_02","HRPVB","html-slider-response","731","579717","0.0-768.0-2.4","vaginal","","Histerectomía (extracción del útero); vaginal","50","49.8"
"","349.6000000014901","HRPVB_11_00","HRPVB","html-button-response","732","580068","0.0-768.0-0.5","Depresión post parto","0","Depresión post parto","",""
"","676.3000000007451","HRPVB_11_02","HRPVB","html-slider-response","733","580747","0.0-768.0-1.5","vaginal","","Depresión post parto; vaginal","50","45.7"
"","544.6000000014901","HRPVB_11_01","HRPVB","html-slider-response","734","581297","0.0-768.0-2.5","cesarea","","Depresión post parto; cesarea","50","48.2"
"","358.1000000014901","HRPVB_06_00","HRPVB","html-button-response","735","581657","0.0-768.0-0.6","Paro cardíaco","0","Paro cardíaco","",""
"","650.3000000007451","HRPVB_06_01","HRPVB","html-slider-response","736","582310","0.0-768.0-1.6","cesarea","","Paro cardíaco; cesarea","50","54.8"
"","674.8000000007451","HRPVB_06_02","HRPVB","html-slider-response","737","582987","0.0-768.0-2.6","vaginal","","Paro cardíaco; vaginal","50","49.6"
