"view_history","rt","trialid","procedure","trial_type","trial_index","time_elapsed","internal_node_id","stimulus","slider_start","response"
"[{""page_index"":0,""viewing_time"":253}]","253","Instructions","REI40","instructions","582","274752","0.0-539.0","","",""
"","396.1500000000233","REI40_09","REI40","html-slider-response","583","275149","0.0-540.0","<div class='justified'>No soy una persona que piense de manera muy analítica.</div></br>","50","1"
"","358.75000000034925","REI40_14","REI40","html-slider-response","584","275509","0.0-541.0","<div class='justified'>Usualmente tengo razones claras y explicables para mis decisiones.</div></br>","50","1"
"","368.9049999998533","REI40_11","REI40","html-slider-response","585","275880","0.0-542.0","<div class='justified'>Disfruto resolviendo problemas que requieren pensar mucho.</div></br>","50","1"
"","387.3450000000885","REI40_06","REI40","html-slider-response","586","276269","0.0-543.0","<div class='justified'>Cuando se trata de confiar en la gente, usualmente me baso en mis corazonadas.</div></br>","50","1"
"","373.50500000006286","REI40_37","REI40","html-slider-response","587","276643","0.0-544.0","<div class='justified'>Casi nunca me equivoco cuando escucho mis sentimientos más profundos para encontrar una respuesta.</div></br>","50","1"
"","376.9649999999092","REI40_40","REI40","html-slider-response","588","277022","0.0-545.0","<div class='justified'>Me gustaría mucho aprender nuevas formas de pensar.</div></br>","50","1"
"","346.8099999999977","REI40_01","REI40","html-slider-response","589","277370","0.0-546.0","<div class='justified'>No soy tan bueno/a resolviendo problemas complicados.</div></br>","50","1"
"","365.68499999976484","REI40_38","REI40","html-slider-response","590","277737","0.0-547.0","<div class='justified'>Soy mucho mejor que la mayoría de la gente para resolver las cosas de forma lógica.</div></br>","50","1"
"","375.68499999993946","REI40_12","REI40","html-slider-response","591","278113","0.0-548.0","<div class='justified'>Creo que es una tontería tomar decisiones basadas en los sentimientos.</div></br>","50","1"
"","367.62500000034925","REI40_25","REI40","html-slider-response","592","278482","0.0-549.0","<div class='justified'>Confío en mis sentimientos iniciales sobre la gente.</div></br>","50","1"
"","364.85499999980675","REI40_27","REI40","html-slider-response","593","278848","0.0-550.0","<div class='justified'>Pienso que no es una buena idea confiar en las propias intuiciones para tomar decisiones importantes.</div></br>","50","1"
"","350.8200000001234","REI40_20","REI40","html-slider-response","594","279200","0.0-551.0","<div class='justified'>Frecuentemente sigo mi instinto cuando decido qué hacer.</div></br>","50","1"
"","352.22500000009313","REI40_26","REI40","html-slider-response","595","279554","0.0-552.0","<div class='justified'>Pienso de manera lógica.</div></br>","50","1"
"","366.31500000023516","REI40_19","REI40","html-slider-response","596","279922","0.0-553.0","<div class='justified'>Generalmente, puedo sentir cuando una persona está equivocada o no a pesar de no poder explicar cómo lo sé.</div></br>","50","1"
"","371.94499999989057","REI40_16","REI40","html-slider-response","597","280295","0.0-554.0","<div class='justified'>No quisiera depender de alguien que se describa a sí mismo como intuitivo.</div></br>","50","1"
"","372.1000000000349","REI40_39","REI40","html-slider-response","598","280668","0.0-555.0","<div class='justified'>La intuición puede ser una forma útil para resolver problemas.</div></br>","50","1"
"","376.9900000002235","REI40_07","REI40","html-slider-response","599","281046","0.0-556.0","<div class='justified'>Pensar no es para mi una actividad agradable.</div></br>","50","1"
"","364.98500000016065","REI40_15","REI40","html-slider-response","600","281413","0.0-557.0","<div class='justified'>Para mí es suficiente conocer la respuesta sin tener que entender el razonamiento detrás.</div></br>","50","1"
"","362.07500000001164","REI40_03","REI40","html-slider-response","601","281776","0.0-558.0","<div class='justified'>Prefiero los problemas complejos antes que los simples.</div></br>","50","1"
"","360.65999999979977","REI40_28","REI40","html-slider-response","602","282138","0.0-559.0","<div class='justified'>No me gusta tener que pensar mucho.</div></br>","50","1"
"","357.71999999997206","REI40_31","REI40","html-slider-response","603","282497","0.0-560.0","<div class='justified'>Creo que hay veces en que uno debería confiar en su intuición.</div></br>","50","1"
"","358.79999999998836","REI40_33","REI40","html-slider-response","604","282857","0.0-561.0","<div class='justified'>Generalmente mis intuiciones me sirven para resolver mis problemas.</div></br>","50","1"
"","364.5749999996042","REI40_24","REI40","html-slider-response","605","283223","0.0-562.0","<div class='justified'>Trato de evitar situaciones que requieren pensar en profundidad sobre algo.</div></br>","50","1"
"","377.0349999999744","REI40_35","REI40","html-slider-response","606","283601","0.0-563.0","<div class='justified'>Tiendo a usar mi corazón como guía para mis acciones.</div></br>","50","1"
"","345.5699999999488","REI40_29","REI40","html-slider-response","607","283948","0.0-564.0","<div class='justified'>No tengo muy buena intuición.</div></br>","50","1"
"","355.7300000002142","REI40_13","REI40","html-slider-response","608","284305","0.0-565.0","<div class='justified'>Sospecho que mis corazonadas a veces son inadecuadas y otras veces adecuadas.</div></br>","50","1"
"","366.8949999996694","REI40_08","REI40","html-slider-response","609","284673","0.0-566.0","<div class='justified'>Me gusta confiar en mis primeras impresiones.</div></br>","50","1"
"","356.2499999998254","REI40_23","REI40","html-slider-response","610","285030","0.0-567.0","<div class='justified'>No me gustan las situaciones en las cuales tengo que confiar en mi intuición.</div></br>","50","1"
"","369.18000000016764","REI40_18","REI40","html-slider-response","611","285401","0.0-568.0","<div class='justified'>Disfruto de los desafíos intelectuales.</div></br>","50","1"
"","350.03000000002794","REI40_05","REI40","html-slider-response","612","285753","0.0-569.0","<div class='justified'>No tengo problema en pensar las cosas con claridad.</div></br>","50","1"
"","358.72999999992317","REI40_21","REI40","html-slider-response","613","286113","0.0-570.0","<div class='justified'>Probablemente, mis juicios apresurados no son tan buenos como los de la mayoría de la gente.</div></br>","50","1"
"","358.2799999999115","REI40_36","REI40","html-slider-response","614","286472","0.0-571.0","<div class='justified'>Pensar mucho y por un tiempo prolongado sobre algo me da poca satisfacción.</div></br>","50","1"
"","348.04499999975087","REI40_32","REI40","html-slider-response","615","286822","0.0-572.0","<div class='justified'>Disfruto pensando en términos abstractos.</div></br>","50","1"
"","352.48999999975786","REI40_02","REI40","html-slider-response","616","287175","0.0-573.0","<div class='justified'>Si me basara en mis corazonadas, me equivocaría seguido.</div></br>","50","1"
"","376.1500000000233","REI40_30","REI40","html-slider-response","617","287553","0.0-574.0","<div class='justified'>No soy muy bueno resolviendo problemas que requieren un análisis lógico minucioso.</div></br>","50","1"
"","353.914999999688","REI40_17","REI40","html-slider-response","618","287908","0.0-575.0","<div class='justified'>generalmente usar la lógica me sirve para resolver mis problemas.</div></br>","50","1"
"","352.0600000001141","REI40_10","REI40","html-slider-response","619","288261","0.0-576.0","<div class='justified'>Yo confío en mis corazonadas.</div></br>","50","1"
"","356.6050000003888","REI40_34","REI40","html-slider-response","620","288619","0.0-577.0","<div class='justified'>No razono bajo presión.</div></br>","50","1"
"","344.9900000000489","REI40_04","REI40","html-slider-response","621","288965","0.0-578.0","<div class='justified'>Generalmente, no dependo de mis sentimientos para tomar decisiones.</div></br>","50","1"
"","361.6400000000722","REI40_22","REI40","html-slider-response","622","289328","0.0-579.0","<div class='justified'>Razonar las cosas cuidadosamente, no es uno de mis puntos fuertes.</div></br>","50","1"
