"view_history","rt","trialid","procedure","trial_type","trial_index","time_elapsed","internal_node_id","stimulus","response"
"[{""page_index"":0,""viewing_time"":557}]","557","Instructions_01","MIS","instructions","320","276851","0.0-353.0","",""
"","678","MIS_01","MIS","survey-multi-choice-vertical","321","277532","0.0-354.0","{""Q0"":""1. Algunas personas pueden hacerme consciente de ellos simplemente pensando en mí.""}","{""Q0"":"" Verdadero""}"
"","752","MIS_02","MIS","survey-multi-choice-vertical","322","278288","0.0-355.0","{""Q0"":""2. He tenido la sensación momentánea de que tal vez no soy humano.""}","{""Q0"":"" Verdadero""}"
"","776","MIS_03","MIS","survey-multi-choice-vertical","323","279074","0.0-356.0","{""Q0"":""3. A veces he tenido miedo de pisar las grietas en la acera.""}","{""Q0"":"" Verdadero""}"
"","948","MIS_04","MIS","survey-multi-choice-vertical","324","280027","0.0-357.0","{""Q0"":""4. Creo que podría aprender a leer las mentes de otros si yo quisiera.""}","{""Q0"":"" Falso""}"
"","860","MIS_05","MIS","survey-multi-choice-vertical","325","280893","0.0-358.0","{""Q0"":""5. Los horóscopos son correctos con demasiada frecuencia para que sea una coincidencia.""}","{""Q0"":"" Falso""}"
"","655","MIS_06","MIS","survey-multi-choice-vertical","326","281551","0.0-359.0","{""Q0"":""6. Las cosas a veces parecen estar en diferentes lugares cuando llego a casa, a pesar de que nadie ha estado allí.""}","{""Q0"":"" Verdadero""}"
"","924","MIS_07","MIS","survey-multi-choice-vertical","327","282478","0.0-360.0","{""Q0"":""7. Los números como 13 y 7 no tienen poderes especiales.""}","{""Q0"":"" Falso""}"
"","685","MIS_08","MIS","survey-multi-choice-vertical","328","283166","0.0-361.0","{""Q0"":""8. Ocasionalmente tuve la tonta sensación de que alguien en la estación de televisión o la emisora ​​de radio sabía que lo estaba escuchando.""}","{""Q0"":"" Verdadero""}"
"","890","MIS_09","MIS","survey-multi-choice-vertical","329","284059","0.0-362.0","{""Q0"":""9. Me preocupa que las personas en otros planetas puedan influir en lo que sucede en la tierra""}","{""Q0"":"" Falso""}"
"","748","MIS_10","MIS","survey-multi-choice-vertical","330","284811","0.0-363.0","{""Q0"":""10. El gobierno se niega a decirnos la verdad sobre platillos voladores.""}","{""Q0"":"" Verdadero""}"
"","813","MIS_11","MIS","survey-multi-choice-vertical","331","285629","0.0-364.0","{""Q0"":""11. He sentido que había mensajes para mí en cómo se organizaron las cosas en una vitrina.""}","{""Q0"":"" Verdadero""}"
"","748","MIS_12","MIS","survey-multi-choice-vertical","332","286381","0.0-365.0","{""Q0"":""12. Nunca he dudado de que mis sueños son los productos de mi propia mente.""}","{""Q0"":"" Verdadero""}"
"","735","MIS_13","MIS","survey-multi-choice-vertical","333","287120","0.0-366.0","{""Q0"":""13. Los amuletos de buena suerte no funcionan.""}","{""Q0"":"" Falso""}"
"","875","MIS_14","MIS","survey-multi-choice-vertical","334","287999","0.0-367.0","{""Q0"":""14. He notado sonidos en mis grabaciones o discos que no están allí en otros momentos.""}","{""Q0"":"" Verdadero""}"
"","653","MIS_15","MIS","survey-multi-choice-vertical","335","288655","0.0-368.0","{""Q0"":""15. Los movimientos de las manos que los extraños hacen parecen influir en mí a veces.""}","{""Q0"":"" Verdadero""}"
"","876","MIS_16","MIS","survey-multi-choice-vertical","336","289534","0.0-369.0","{""Q0"":""16. Casi nunca sueño con cosas antes de que sucedan.""}","{""Q0"":"" Verdadero""}"
"","780","MIS_17","MIS","survey-multi-choice-vertical","337","290318","0.0-370.0","{""Q0"":""17. He tenido la sensación momentánea de que el lugar de una persona ha sido ocupado por alguien parecido a ella.""}","{""Q0"":"" Falso""}"
"","743","MIS_18","MIS","survey-multi-choice-vertical","338","291065","0.0-371.0","{""Q0"":""18. No es posible dañar a otros simplemente teniendo malos pensamientos sobre ellos.""}","{""Q0"":"" Verdadero""}"
"","744","MIS_19","MIS","survey-multi-choice-vertical","339","291813","0.0-372.0","{""Q0"":""19. A veces he sentido una presencia maligna a mi alrededor, aunque no podía verla.""}","{""Q0"":"" Verdadero""}"
"","778","MIS_20","MIS","survey-multi-choice-vertical","340","292594","0.0-373.0","{""Q0"":""20. A veces tengo la sensación de ganar o perder energía cuando ciertas personas me miran o me tocan.""}","{""Q0"":"" Falso""}"
"","725","MIS_21","MIS","survey-multi-choice-vertical","341","293322","0.0-374.0","{""Q0"":""21. A veces he tenido el pensamiento pasajero de que los extraños están enamorados de mí.""}","{""Q0"":"" Verdadero""}"
"","633","MIS_22","MIS","survey-multi-choice-vertical","342","293959","0.0-375.0","{""Q0"":""22. Nunca tuve la sensación de que ciertos pensamientos míos pertenecían (eran) realmente de otra persona.""}","{""Q0"":"" Falso""}"
"","839","MIS_23","MIS","survey-multi-choice-vertical","343","294801","0.0-376.0","{""Q0"":""23. Cuando me presentan a extraños, rara vez me pregunto si los he conocido antes.""}","{""Q0"":"" Verdadero""}"
"","649","MIS_24","MIS","survey-multi-choice-vertical","344","295453","0.0-377.0","{""Q0"":""24. Si la reencarnación fuera cierta, explicaría algunas experiencias inusuales que he tenido.""}","{""Q0"":"" Falso""}"
"","847","MIS_25","MIS","survey-multi-choice-vertical","345","296305","0.0-378.0","{""Q0"":""25. Las personas a menudo se comportan de manera tan extraña que uno se pregunta si son parte de un experimento.""}","{""Q0"":"" Verdadero""}"
"","773","MIS_26","MIS","survey-multi-choice-vertical","346","297082","0.0-379.0","{""Q0"":""26. A veces realizo ciertos pequeños rituales para alejar las influencias negativas.""}","{""Q0"":"" Verdadero""}"
"","818","MIS_27","MIS","survey-multi-choice-vertical","347","297904","0.0-380.0","{""Q0"":""27. He sentido que podría causar que algo suceda, simplemente pensando demasiado en ello.""}","{""Q0"":"" Falso""}"
"","708","MIS_28","MIS","survey-multi-choice-vertical","348","298614","0.0-381.0","{""Q0"":""28. Me he preguntado si los espíritus de los muertos pueden influir en los vivos.""}","{""Q0"":"" Falso""}"
"","647","MIS_29","MIS","survey-multi-choice-vertical","349","299264","0.0-382.0","{""Q0"":""29. A veces he sentido que la conferencia de un profesor (charla de experto) estaba destinada especialmente para mí.""}","{""Q0"":"" Verdadero""}"
"","660","MIS_30","MIS","survey-multi-choice-vertical","350","299927","0.0-383.0","{""Q0"":""30. A veces he sentido que extraños leían mi mente.""}","{""Q0"":"" Falso""}"
