"view_history","rt","trialid","procedure","trial_type","trial_index","time_elapsed","internal_node_id","stimulus","response"
"[{""page_index"":0,""viewing_time"":390}]","390","Instructions_01","MIS","instructions","320","277876","0.0-353.0","",""
"","617","MIS_01","MIS","survey-multi-choice-vertical","321","278496","0.0-354.0","{""Q0"":""1. Algunas personas pueden hacerme consciente de ellos simplemente pensando en mí.""}","{""Q0"":"" Falso""}"
"","907","MIS_02","MIS","survey-multi-choice-vertical","322","279406","0.0-355.0","{""Q0"":""2. He tenido la sensación momentánea de que tal vez no soy humano.""}","{""Q0"":"" Verdadero""}"
"","689","MIS_03","MIS","survey-multi-choice-vertical","323","280098","0.0-356.0","{""Q0"":""3. A veces he tenido miedo de pisar las grietas en la acera.""}","{""Q0"":"" Falso""}"
"","839","MIS_04","MIS","survey-multi-choice-vertical","324","280940","0.0-357.0","{""Q0"":""4. Creo que podría aprender a leer las mentes de otros si yo quisiera.""}","{""Q0"":"" Verdadero""}"
"","738","MIS_05","MIS","survey-multi-choice-vertical","325","281682","0.0-358.0","{""Q0"":""5. Los horóscopos son correctos con demasiada frecuencia para que sea una coincidencia.""}","{""Q0"":"" Falso""}"
"","955","MIS_06","MIS","survey-multi-choice-vertical","326","282640","0.0-359.0","{""Q0"":""6. Las cosas a veces parecen estar en diferentes lugares cuando llego a casa, a pesar de que nadie ha estado allí.""}","{""Q0"":"" Verdadero""}"
"","745","MIS_07","MIS","survey-multi-choice-vertical","327","283389","0.0-360.0","{""Q0"":""7. Los números como 13 y 7 no tienen poderes especiales.""}","{""Q0"":"" Verdadero""}"
"","739","MIS_08","MIS","survey-multi-choice-vertical","328","284131","0.0-361.0","{""Q0"":""8. Ocasionalmente tuve la tonta sensación de que alguien en la estación de televisión o la emisora ​​de radio sabía que lo estaba escuchando.""}","{""Q0"":"" Verdadero""}"
"","811","MIS_09","MIS","survey-multi-choice-vertical","329","284946","0.0-362.0","{""Q0"":""9. Me preocupa que las personas en otros planetas puedan influir en lo que sucede en la tierra""}","{""Q0"":"" Falso""}"
"","702","MIS_10","MIS","survey-multi-choice-vertical","330","285650","0.0-363.0","{""Q0"":""10. El gobierno se niega a decirnos la verdad sobre platillos voladores.""}","{""Q0"":"" Verdadero""}"
"","900","MIS_11","MIS","survey-multi-choice-vertical","331","286554","0.0-364.0","{""Q0"":""11. He sentido que había mensajes para mí en cómo se organizaron las cosas en una vitrina.""}","{""Q0"":"" Verdadero""}"
"","716","MIS_12","MIS","survey-multi-choice-vertical","332","287273","0.0-365.0","{""Q0"":""12. Nunca he dudado de que mis sueños son los productos de mi propia mente.""}","{""Q0"":"" Verdadero""}"
"","872","MIS_13","MIS","survey-multi-choice-vertical","333","288149","0.0-366.0","{""Q0"":""13. Los amuletos de buena suerte no funcionan.""}","{""Q0"":"" Falso""}"
"","764","MIS_14","MIS","survey-multi-choice-vertical","334","288916","0.0-367.0","{""Q0"":""14. He notado sonidos en mis grabaciones o discos que no están allí en otros momentos.""}","{""Q0"":"" Verdadero""}"
"","790","MIS_15","MIS","survey-multi-choice-vertical","335","289710","0.0-368.0","{""Q0"":""15. Los movimientos de las manos que los extraños hacen parecen influir en mí a veces.""}","{""Q0"":"" Verdadero""}"
"","772","MIS_16","MIS","survey-multi-choice-vertical","336","290486","0.0-369.0","{""Q0"":""16. Casi nunca sueño con cosas antes de que sucedan.""}","{""Q0"":"" Falso""}"
"","690","MIS_17","MIS","survey-multi-choice-vertical","337","291180","0.0-370.0","{""Q0"":""17. He tenido la sensación momentánea de que el lugar de una persona ha sido ocupado por alguien parecido a ella.""}","{""Q0"":"" Verdadero""}"
"","943","MIS_18","MIS","survey-multi-choice-vertical","338","292126","0.0-371.0","{""Q0"":""18. No es posible dañar a otros simplemente teniendo malos pensamientos sobre ellos.""}","{""Q0"":"" Falso""}"
"","714","MIS_19","MIS","survey-multi-choice-vertical","339","292842","0.0-372.0","{""Q0"":""19. A veces he sentido una presencia maligna a mi alrededor, aunque no podía verla.""}","{""Q0"":"" Verdadero""}"
"","867","MIS_20","MIS","survey-multi-choice-vertical","340","293712","0.0-373.0","{""Q0"":""20. A veces tengo la sensación de ganar o perder energía cuando ciertas personas me miran o me tocan.""}","{""Q0"":"" Falso""}"
"","627","MIS_21","MIS","survey-multi-choice-vertical","341","294343","0.0-374.0","{""Q0"":""21. A veces he tenido el pensamiento pasajero de que los extraños están enamorados de mí.""}","{""Q0"":"" Verdadero""}"
"","817","MIS_22","MIS","survey-multi-choice-vertical","342","295162","0.0-375.0","{""Q0"":""22. Nunca tuve la sensación de que ciertos pensamientos míos pertenecían (eran) realmente de otra persona.""}","{""Q0"":"" Verdadero""}"
"","757","MIS_23","MIS","survey-multi-choice-vertical","343","295923","0.0-376.0","{""Q0"":""23. Cuando me presentan a extraños, rara vez me pregunto si los he conocido antes.""}","{""Q0"":"" Falso""}"
"","711","MIS_24","MIS","survey-multi-choice-vertical","344","296637","0.0-377.0","{""Q0"":""24. Si la reencarnación fuera cierta, explicaría algunas experiencias inusuales que he tenido.""}","{""Q0"":"" Falso""}"
"","711","MIS_25","MIS","survey-multi-choice-vertical","345","297352","0.0-378.0","{""Q0"":""25. Las personas a menudo se comportan de manera tan extraña que uno se pregunta si son parte de un experimento.""}","{""Q0"":"" Verdadero""}"
"","675","MIS_26","MIS","survey-multi-choice-vertical","346","298029","0.0-379.0","{""Q0"":""26. A veces realizo ciertos pequeños rituales para alejar las influencias negativas.""}","{""Q0"":"" Falso""}"
"","887","MIS_27","MIS","survey-multi-choice-vertical","347","298920","0.0-380.0","{""Q0"":""27. He sentido que podría causar que algo suceda, simplemente pensando demasiado en ello.""}","{""Q0"":"" Verdadero""}"
"","761","MIS_28","MIS","survey-multi-choice-vertical","348","299685","0.0-381.0","{""Q0"":""28. Me he preguntado si los espíritus de los muertos pueden influir en los vivos.""}","{""Q0"":"" Verdadero""}"
"","718","MIS_29","MIS","survey-multi-choice-vertical","349","300407","0.0-382.0","{""Q0"":""29. A veces he sentido que la conferencia de un profesor (charla de experto) estaba destinada especialmente para mí.""}","{""Q0"":"" Falso""}"
"","683","MIS_30","MIS","survey-multi-choice-vertical","350","301094","0.0-383.0","{""Q0"":""30. A veces he sentido que extraños leían mi mente.""}","{""Q0"":"" Verdadero""}"
