"view_history","rt","trialid","condition_between","procedure","trial_type","trial_index","time_elapsed","internal_node_id","condition_within","stimulus","response","slider_start"
"[{""page_index"":0,""viewing_time"":404}]","404","Instructions_001","Image","FONDECYT","instructions","794","623102","0.0-800.0","","","",""
"[{""page_index"":0,""viewing_time"":494}]","494","FONDECYT_01_1","Image","FONDECYT","instructions","795","623597","0.0-801.0-0.0","lowQuality_Stroke","","",""
"","630.4000000022352","FONDECYT_02_1","Image","FONDECYT","survey-html-form","796","624232","0.0-801.0-1.0","lowQuality_Stroke","{""Q0"":null}","{""Q0"":""96""}",""
"","726","FONDECYT_03_1","Image","FONDECYT","survey-multi-choice-vertical","797","624964","0.0-801.0-2.0","lowQuality_Stroke","{""Q0"":""Has dicho que la probabilidad es del 96%¿Recomendarias la resonancia Weighted Difussion Imaging como prueba diagnóstica para detectar infarto cerebral a tu paciente?""}","{""Q0"":"" No""}",""
"","619.8999999985099","FONDECYT_04_1","Image","FONDECYT","html-slider-response","798","625586","0.0-801.0-3.0","lowQuality_Stroke","<div class='justified'>¿Con qué seguridad NO recomendarías la resonancia Weighted Difussion Imaging como prueba <u>diagnóstica</u> para el infarto cerebral?</div></br>","53","50"
"","781","FONDECYT_05_1","Image","FONDECYT","survey-multi-choice-vertical","799","626372","0.0-801.0-4.0","lowQuality_Stroke","{""Q0"":""El tratamiento recomendado cuando hay sospecha de infarto cerebral es la trombolisis.Cuando se aplica, existe una probabilidad de hermorragia del 2%.Imagina que el resultado de prueba es NEGATIVO. Recomendarías la trombolisis como tratamiento?""}","{""Q0"":"" No""}",""
"","830","FONDECYT_06_1","Image","FONDECYT","html-slider-response","800","627207","0.0-801.0-5.0","lowQuality_Stroke","<div class='justified'>¿Con qué seguridad NO recomendarías la trombolisis como tratamiento para el infarto cerebral?</div></br>","32","50"
"[{""page_index"":0,""viewing_time"":415}]","416","FONDECYT_01_2","Image","FONDECYT","instructions","801","627626","0.0-801.0-0.1","highQuality_Stroke","","",""
"","764.5","FONDECYT_02_2","Image","FONDECYT","survey-html-form","802","628394","0.0-801.0-1.1","highQuality_Stroke","{""Q0"":null}","{""Q0"":""96""}",""
"","949","FONDECYT_03_2","Image","FONDECYT","survey-multi-choice-vertical","803","629351","0.0-801.0-2.1","highQuality_Stroke","{""Q0"":""Has dicho que la probabilidad es del 96%¿Recomendarias la resonancia Weighted Difussion Imaging como prueba diagnóstica para detectar infarto cerebral a tu paciente?""}","{""Q0"":"" No""}",""
"","509","FONDECYT_04_2","Image","FONDECYT","html-slider-response","804","629864","0.0-801.0-3.1","highQuality_Stroke","<div class='justified'>¿Con qué seguridad NO recomendarías la resonancia Weighted Difussion Imaging como prueba <u>diagnóstica</u> para el infarto cerebral?</div></br>","53","50"
"","745","FONDECYT_05_2","Image","FONDECYT","survey-multi-choice-vertical","805","630613","0.0-801.0-4.1","highQuality_Stroke","{""Q0"":""El tratamiento recomendado cuando hay sospecha de infarto cerebral es la trombolisis.Cuando se aplica, existe una probabilidad de hermorragia del 2%.Imagina que el resultado de prueba es POSITIVO. Recomendarías la trombolisis como tratamiento?""}","{""Q0"":"" No""}",""
"","1001.4000000022352","FONDECYT_06_2","Image","FONDECYT","html-slider-response","806","631617","0.0-801.0-5.1","highQuality_Stroke","<div class='justified'>¿Con qué seguridad NO recomendarías la trombolisis como tratamiento para el infarto cerebral?</div></br>","32","50"
"[{""page_index"":0,""viewing_time"":395}]","396","FONDECYT_01_3","Image","FONDECYT","instructions","807","632014","0.0-801.0-0.2","highQuality_Cancer","","",""
"","791.5","FONDECYT_02_3","Image","FONDECYT","survey-html-form","808","632808","0.0-801.0-1.2","highQuality_Cancer","{""Q0"":null}","{""Q0"":""96""}",""
"","645","FONDECYT_03_3","Image","FONDECYT","survey-multi-choice-vertical","809","633458","0.0-801.0-2.2","highQuality_Cancer","{""Q0"":""Has dicho que la probabilidad es del 96%¿Recomendarias la mamografía como prueba de screening para detectar cáncer de mama a tu paciente?""}","{""Q0"":"" No""}",""
"","666","FONDECYT_04_3","Image","FONDECYT","html-slider-response","810","634126","0.0-801.0-3.2","highQuality_Cancer","<div class='justified'>¿Con qué seguridad NO recomendarías la mamografía como prueba <u>de screening</u> para el cáncer de mama?</div></br>","53","50"
"","843","FONDECYT_05_3","Image","FONDECYT","survey-multi-choice-vertical","811","634974","0.0-801.0-4.2","highQuality_Cancer","{""Q0"":""La prueba diagnóstica recomendada cuando hay sospecha de cáncer de mama es una biopsia del tejido mamario.Cuando se aplica, existe una probabilidad de infección del 1%.Imagina que el resultado de prueba es NEGATIVO. Recomendarías la biopsia como prueba diagnóstica?""}","{""Q0"":"" No""}",""
"","579.7999999970198","FONDECYT_06_3","Image","FONDECYT","html-slider-response","812","635556","0.0-801.0-5.2","highQuality_Cancer","<div class='justified'>¿Con qué seguridad NO recomendarías la biopsia como prueba diagnóstica para el cáncer de mama?</div></br>","32","50"
"[{""page_index"":0,""viewing_time"":501}]","501","FONDECYT_01_4","Image","FONDECYT","instructions","813","636058","0.0-801.0-0.3","lowQuality_Cancer","","",""
"","782.5","FONDECYT_02_4","Image","FONDECYT","survey-html-form","814","636845","0.0-801.0-1.3","lowQuality_Cancer","{""Q0"":null}","{""Q0"":""96""}",""
"","646","FONDECYT_03_4","Image","FONDECYT","survey-multi-choice-vertical","815","637498","0.0-801.0-2.3","lowQuality_Cancer","{""Q0"":""Has dicho que la probabilidad es del 96%¿Recomendarias la mamografía como prueba de screening para detectar cáncer de mama a tu paciente?""}","{""Q0"":"" No""}",""
"","639.0999999977648","FONDECYT_04_4","Image","FONDECYT","html-slider-response","816","638140","0.0-801.0-3.3","lowQuality_Cancer","<div class='justified'>¿Con qué seguridad NO recomendarías la mamografía como prueba <u>de screening</u> para el cáncer de mama?</div></br>","53","50"
"","656","FONDECYT_05_4","Image","FONDECYT","survey-multi-choice-vertical","817","638801","0.0-801.0-4.3","lowQuality_Cancer","{""Q0"":""La prueba diagnóstica recomendada cuando hay sospecha de cáncer de mama es una biopsia del tejido mamario.Cuando se aplica, existe una probabilidad de infección del 1%.Imagina que el resultado de prueba es POSITIVO. Recomendarías la biopsia como prueba diagnóstica?""}","{""Q0"":"" No""}",""
"","531","FONDECYT_06_4","Image","FONDECYT","html-slider-response","818","639334","0.0-801.0-5.3","lowQuality_Cancer","<div class='justified'>¿Con qué seguridad NO recomendarías la biopsia como prueba diagnóstica para el cáncer de mama?</div></br>","32","50"
