"view_history","rt","trialid","procedure","trial_type","trial_index","time_elapsed","internal_node_id","stimulus","response","slider_start"
"[{""page_index"":0,""viewing_time"":282}]","282","Instructions_01","ITC","instructions","457","598500","0.0-412.0","","",""
"","755","ITC_01","ITC","survey-multi-choice-vertical","458","599258","0.0-413.0","{""Q0"":""1. ¿Qué opción preferirías?""}","{""Q0"":"" $3800000 el próximo mes""}",""
"","775","ITC_02","ITC","survey-multi-choice-vertical","459","600035","0.0-414.0","{""Q0"":""2. ¿Qué opción preferirías?""}","{""Q0"":"" $140000 el próximo mes""}",""
"","598","ITC_03","ITC","survey-multi-choice-vertical","460","600636","0.0-415.0","{""Q0"":""3. ¿Qué opción preferirías?""}","{""Q0"":"" $1100000 en 10 años""}",""
"","772","ITC_04","ITC","survey-multi-choice-vertical","461","601411","0.0-416.0","{""Q0"":""4. ¿Qué opción preferirías?""}","{""Q0"":"" $9000 ahora""}",""
"","732","ITC_05","ITC","survey-multi-choice-vertical","462","602147","0.0-417.0","{""Q0"":""5. ¿Qué opción preferirías?""}","{""Q0"":"" $40000 inmediatamente""}",""
"","708","ITC_06","ITC","survey-multi-choice-vertical","463","602858","0.0-418.0","{""Q0"":""6. ¿Qué opción preferirías?""}","{""Q0"":"" $100000 ahora""}",""
"","806","ITC_07","ITC","survey-multi-choice-vertical","464","603666","0.0-419.0","{""Q0"":""7. ¿Qué opción preferirías?""}","{""Q0"":"" $400000""}",""
"","618","ITC_08","ITC","survey-multi-choice-vertical","465","604287","0.0-420.0","{""Q0"":""8. ¿Qué opción preferirías?""}","{""Q0"":"" $1000000 ahora""}",""
"","839","ITC_09","ITC","survey-multi-choice-vertical","466","605129","0.0-421.0","{""Q0"":""9. ¿Qué opción preferirías?""}","{""Q0"":"" Un masaje de 30 mins. en dos semanas""}",""
"","683","ITC_10","ITC","survey-multi-choice-vertical","467","605814","0.0-422.0","{""Q0"":""10. ¿Qué opción preferirías?""}","{""Q0"":"" Perder $1000000 este año""}",""
"","638","ITC_11","ITC","survey-multi-choice-vertical","468","606456","0.0-423.0","{""Q0"":""11. ¿Qué opción preferirías?""}","{""Q0"":"" Sacarte un diente en 2 semanas""}",""
"","712.6000000014901","ITC_12","ITC","html-slider-response","469","607171","0.0-424.0","<div class='justified'>12. ¿Cuán impulsivo eres?</div></br>","-4","50"
"","551.1999999992549","ITC_13","ITC","html-slider-response","470","607724","0.0-425.0","<div class='justified'>13. ¿Cuánto tiempo tiendes a procastinar (perder el tiempo cuando tienes que hacer algo importante?</div></br>","-4","50"
"","516.6999999992549","ITC_14","ITC","html-slider-response","471","608243","0.0-426.0","<div class='justified'>14. ¿Cuánto piensas en tu futuro?</div></br>","-4","50"
"","1065","ITC_15","ITC","survey-multi-choice-vertical","472","609311","0.0-427.0","{""Q0"":""15. Te has encontrado una billetera en cuyo interior hay una suma grande de dinero y la identificación del dueño. ¿Qué crees que harías?""}","{""Q0"":"" Devuelves la billetera esperando recibir una recompensa""}",""
"","749","ITC_16","ITC","survey-multi-choice-vertical","473","610064","0.0-428.0","{""Q0"":""16. Un(a) niño(a) andando en triciclo pasa por tu casa aparentando estar perdido.  ¿Qué crees que harías?""}","{""Q0"":"" Te imaginas que el niño(a) conoce el camino a su casa""}",""
"","1055","ITC_17","ITC","survey-multi-choice-vertical","474","611122","0.0-429.0","{""Q0"":""17. ¿Qué sería más probable que hicieras un sábado por la tarde?""}","{""Q0"":"" Encontrar a alguien que te ayude en un proyecto muy atrasado que tienes""}",""
"","765","ITC_18","ITC","survey-multi-choice-vertical","475","611892","0.0-430.0","{""Q0"":""18. Un hombre que no habla español se te acerca en la calle apartentemente por necesita ayuda. ¿Qué crees que harías?""}","{""Q0"":"" Sigues caminando porque no quieres llegar tarde a tu destino""}",""
"","975","ITC_19","ITC","survey-multi-choice-vertical","476","612873","0.0-431.0","{""Q0"":""19. La noche anterior a un importante examen un compañero te muestra una copia robada de la prueba.  ¿Qué crees que harías?""}","{""Q0"":"" Estudias el examen robado y obtienes una buena nota""}",""
"","869","ITC_20","ITC","survey-multi-choice-vertical","477","613748","0.0-432.0","{""Q0"":""20. En una situación en la que podrías cooperar, pero preferirías no hacerlo:""}","{""Q0"":"" Evito situaciones donde podría ser requerida mi cooperación""}",""
"","1065","ITC_21","ITC","survey-multi-choice-vertical","478","614818","0.0-433.0","{""Q0"":""21. Un amigo(a) te pide prestado(a) una prenda de ropa.  ¿Qué crees que harías?""}","{""Q0"":"" Se la prestas si sabes que realmente la necesita""}",""
"","899","ITC_22","ITC","survey-multi-choice-vertical","479","615722","0.0-434.0","{""Q0"":""22. Un(a) compañero(a) de tu clase está teniendo un problema en su casa y en su rendimiento universitario . ¿Qué crees que harías?""}","{""Q0"":"" Acuerdas con la persona una tarifa razonable para ayudarlo""}",""
"","1062","ITC_23","ITC","survey-multi-choice-vertical","480","616788","0.0-435.0","{""Q0"":""23. Estás en el segundo piso de un edificio y notas a un hombre con problemas de equililbrio y apartentando estar en problemas. ¿Qué crees que harías?""}","{""Q0"":"" Vas en ayuda sólo si lo reconoces como alguien conocido""}",""
"","845","ITC_24","ITC","survey-multi-choice-vertical","481","617638","0.0-436.0","{""Q0"":""24. Estando solo(a) en tu casa, escuchas afuera a una mujer pidiendo ayuda. ¿Qué crees que harías?""}","{""Q0"":"" Estás seguro de que alquien más ha escuchado por lo que esperas""}",""
"","959","ITC_25","ITC","survey-multi-choice-vertical","482","618604","0.0-437.0","{""Q0"":""25. Yendo hacia la universidad ve a una persona de tu mismo sexo y similar edad con problemas en su auto. ¿Qué crees que harías?""}","{""Q0"":"" Continúas tu viaje""}",""
"","949","ITC_26","ITC","survey-multi-choice-vertical","483","619557","0.0-438.0","{""Q0"":""26. Cuando eres requerido(a) como voluntario(a) para una tarea en la que no recibirás pago. ¿Qué crees que harías?""}","{""Q0"":"" Lo evitas o pospones la respuesta""}",""
"","965","ITC_27","ITC","survey-multi-choice-vertical","484","620526","0.0-439.0","{""Q0"":""27. Una anciana parada en una esquina aparenta estar perdida. ¿Qué crees que harías?""}","{""Q0"":"" La ayudas solo si está bien vestida""}",""
"","897","ITC_28","ITC","survey-multi-choice-vertical","485","621429","0.0-440.0","{""Q0"":""28. Un grupo de compañeros tuyos organizó un evento de llamado \""como todo lo que puedas\"" a beneficiencia de una institución de caridad. ¿Qué crees que harías?""}","{""Q0"":"" Compras la entrada sin intención de ir""}",""
"","934","ITC_29","ITC","survey-multi-choice-vertical","486","622367","0.0-441.0","{""Q0"":""29. Una persona \""hace dedo\"" tarde en la noche. Está lloviendo y hay pocos autos en el camino. ¿Qué crees que harías?""}","{""Q0"":"" Continúas manejando por seguridad""}",""
"","924","ITC_30","ITC","survey-multi-choice-vertical","487","623298","0.0-442.0","{""Q0"":""30. Estás en una sala de espera con otra persona. Si escuchas un grito en la sala de al lado y la otra persona no hace nada. ¿Qué crees que harías?""}","{""Q0"":"" Esperas a ver si los gritos continuan""}",""
"","1039","ITC_31","ITC","survey-multi-choice-vertical","488","624341","0.0-443.0","{""Q0"":""31. ¿A cual grupo sería más probable que te unas?""}","{""Q0"":"" A un club dedicado a actividades de ocio""}",""
"","880","ITC_32","ITC","survey-multi-choice-vertical","489","625226","0.0-444.0","{""Q0"":""32. En una calle desierta una persona pobremente vestida te pide una moneda. ¿Qué crees que harías?""}","{""Q0"":"" Le das la moneda sin hacer preguntas""}",""
"","897","ITC_33","ITC","survey-multi-choice-vertical","490","626129","0.0-445.0","{""Q0"":""33. ¿Cuál de las siguientes alternativas te prepresenta mejor?""}","{""Q0"":"" Solucionar tus propios problemas sin ayuda del resto""}",""
"","926","ITC_34","ITC","survey-multi-choice-vertical","491","627063","0.0-446.0","{""Q0"":""34. Si eres requerido(a) como voluntario (a) para una causa social por la que recibirás pago. ¿Qué crees que harías?""}","{""Q0"":"" Serías voluntario(a) pero no aceptas el pago""}",""
"","908","ITC_35","ITC","survey-multi-choice-vertical","492","627977","0.0-447.0","{""Q0"":""35. Un amigo de otra universidad visita a tu compañero de pieza el fin de semana. El quiere usar tu ticket de almuerzo para comer en la cafetería gratis. ¿Qué crees que harías?""}","{""Q0"":"" Le prestas tu ticket si tu compañero promete que hará lo mismo por ti alguna vez""}",""
