"view_history","rt","trialid","procedure","trial_type","trial_index","time_elapsed","internal_node_id","stimulus","response"
"[{""page_index"":0,""viewing_time"":410}]","410","Instructions_01","MIS","instructions","491","677067","0.0-449.0","",""
"","801","MIS_01","MIS","survey-multi-choice-vertical","492","677873","0.0-450.0","{""Q0"":""1. Algunas personas pueden hacerme consciente de ellos simplemente pensando en mí.""}","{""Q0"":"" Verdadero""}"
"","1135","MIS_02","MIS","survey-multi-choice-vertical","493","679013","0.0-451.0","{""Q0"":""2. He tenido la sensación momentánea de que tal vez no soy humano.""}","{""Q0"":"" Verdadero""}"
"","1054","MIS_03","MIS","survey-multi-choice-vertical","494","680074","0.0-452.0","{""Q0"":""3. A veces he tenido miedo de pisar las grietas en la acera.""}","{""Q0"":"" Verdadero""}"
"","842","MIS_04","MIS","survey-multi-choice-vertical","495","680920","0.0-453.0","{""Q0"":""4. Creo que podría aprender a leer las mentes de otros si yo quisiera.""}","{""Q0"":"" Verdadero""}"
"","654","MIS_05","MIS","survey-multi-choice-vertical","496","681577","0.0-454.0","{""Q0"":""5. Los horóscopos son correctos con demasiada frecuencia para que sea una coincidencia.""}","{""Q0"":"" Falso""}"
"","602","MIS_06","MIS","survey-multi-choice-vertical","497","682181","0.0-455.0","{""Q0"":""6. Las cosas a veces parecen estar en diferentes lugares cuando llego a casa, a pesar de que nadie ha estado allí.""}","{""Q0"":"" Verdadero""}"
"","813","MIS_07","MIS","survey-multi-choice-vertical","498","682999","0.0-456.0","{""Q0"":""7. Los números como 13 y 7 no tienen poderes especiales.""}","{""Q0"":"" Falso""}"
"","695","MIS_08","MIS","survey-multi-choice-vertical","499","683698","0.0-457.0","{""Q0"":""8. Ocasionalmente tuve la tonta sensación de que alguien en la estación de televisión o la emisora ​​de radio sabía que lo estaba escuchando.""}","{""Q0"":"" Falso""}"
"","882","MIS_09","MIS","survey-multi-choice-vertical","500","684587","0.0-458.0","{""Q0"":""9. Me preocupa que las personas en otros planetas puedan influir en lo que sucede en la tierra""}","{""Q0"":"" Falso""}"
"","727","MIS_10","MIS","survey-multi-choice-vertical","501","685318","0.0-459.0","{""Q0"":""10. El gobierno se niega a decirnos la verdad sobre platillos voladores.""}","{""Q0"":"" Verdadero""}"
"","665","MIS_11","MIS","survey-multi-choice-vertical","502","685986","0.0-460.0","{""Q0"":""11. He sentido que había mensajes para mí en cómo se organizaron las cosas en una vitrina.""}","{""Q0"":"" Falso""}"
"","787","MIS_12","MIS","survey-multi-choice-vertical","503","686776","0.0-461.0","{""Q0"":""12. Nunca he dudado de que mis sueños son los productos de mi propia mente.""}","{""Q0"":"" Falso""}"
"","761","MIS_13","MIS","survey-multi-choice-vertical","504","687541","0.0-462.0","{""Q0"":""13. Los amuletos de buena suerte no funcionan.""}","{""Q0"":"" Verdadero""}"
"","882","MIS_14","MIS","survey-multi-choice-vertical","505","688426","0.0-463.0","{""Q0"":""14. He notado sonidos en mis grabaciones o discos que no están allí en otros momentos.""}","{""Q0"":"" Falso""}"
"","617","MIS_15","MIS","survey-multi-choice-vertical","506","689045","0.0-464.0","{""Q0"":""15. Los movimientos de las manos que los extraños hacen parecen influir en mí a veces.""}","{""Q0"":"" Falso""}"
"","664","MIS_16","MIS","survey-multi-choice-vertical","507","689712","0.0-465.0","{""Q0"":""16. Casi nunca sueño con cosas antes de que sucedan.""}","{""Q0"":"" Verdadero""}"
"","830","MIS_17","MIS","survey-multi-choice-vertical","508","690547","0.0-466.0","{""Q0"":""17. He tenido la sensación momentánea de que el lugar de una persona ha sido ocupado por alguien parecido a ella.""}","{""Q0"":"" Falso""}"
"","1427","MIS_18","MIS","survey-multi-choice-vertical","509","691978","0.0-467.0","{""Q0"":""18. No es posible dañar a otros simplemente teniendo malos pensamientos sobre ellos.""}","{""Q0"":"" Falso""}"
"","932","MIS_19","MIS","survey-multi-choice-vertical","510","692917","0.0-468.0","{""Q0"":""19. A veces he sentido una presencia maligna a mi alrededor, aunque no podía verla.""}","{""Q0"":"" Verdadero""}"
"","634","MIS_20","MIS","survey-multi-choice-vertical","511","693554","0.0-469.0","{""Q0"":""20. A veces tengo la sensación de ganar o perder energía cuando ciertas personas me miran o me tocan.""}","{""Q0"":"" Verdadero""}"
"","862","MIS_21","MIS","survey-multi-choice-vertical","512","694419","0.0-470.0","{""Q0"":""21. A veces he tenido el pensamiento pasajero de que los extraños están enamorados de mí.""}","{""Q0"":"" Falso""}"
"","790","MIS_22","MIS","survey-multi-choice-vertical","513","695213","0.0-471.0","{""Q0"":""22. Nunca tuve la sensación de que ciertos pensamientos míos pertenecían (eran) realmente de otra persona.""}","{""Q0"":"" Verdadero""}"
"","1113","MIS_23","MIS","survey-multi-choice-vertical","514","696332","0.0-472.0","{""Q0"":""23. Cuando me presentan a extraños, rara vez me pregunto si los he conocido antes.""}","{""Q0"":"" Verdadero""}"
"","707","MIS_24","MIS","survey-multi-choice-vertical","515","697045","0.0-473.0","{""Q0"":""24. Si la reencarnación fuera cierta, explicaría algunas experiencias inusuales que he tenido.""}","{""Q0"":"" Falso""}"
"","727","MIS_25","MIS","survey-multi-choice-vertical","516","697776","0.0-474.0","{""Q0"":""25. Las personas a menudo se comportan de manera tan extraña que uno se pregunta si son parte de un experimento.""}","{""Q0"":"" Falso""}"
"","788","MIS_26","MIS","survey-multi-choice-vertical","517","698567","0.0-475.0","{""Q0"":""26. A veces realizo ciertos pequeños rituales para alejar las influencias negativas.""}","{""Q0"":"" Falso""}"
"","672","MIS_27","MIS","survey-multi-choice-vertical","518","699243","0.0-476.0","{""Q0"":""27. He sentido que podría causar que algo suceda, simplemente pensando demasiado en ello.""}","{""Q0"":"" Verdadero""}"
"","821","MIS_28","MIS","survey-multi-choice-vertical","519","700067","0.0-477.0","{""Q0"":""28. Me he preguntado si los espíritus de los muertos pueden influir en los vivos.""}","{""Q0"":"" Verdadero""}"
"","745","MIS_29","MIS","survey-multi-choice-vertical","520","700816","0.0-478.0","{""Q0"":""29. A veces he sentido que la conferencia de un profesor (charla de experto) estaba destinada especialmente para mí.""}","{""Q0"":"" Verdadero""}"
"","817","MIS_30","MIS","survey-multi-choice-vertical","521","701637","0.0-479.0","{""Q0"":""30. A veces he sentido que extraños leían mi mente.""}","{""Q0"":"" Falso""}"
