"view_history","rt","trialid","procedure","trial_type","trial_index","time_elapsed","internal_node_id","stimulus","response","slider_start"
"[{""page_index"":0,""viewing_time"":253}]","253","Instructions","ITC","instructions","394","184094","0.0-347.0","","",""
"","450","ITC_01","ITC","survey-multi-choice-vertical","395","184547","0.0-348.0","{""Q0"":""1. ¿Qué opción preferirías?""}","{""Q0"":"" $3400000 este mes""}",""
"","434","ITC_02","ITC","survey-multi-choice-vertical","396","184983","0.0-349.0","{""Q0"":""2. ¿Qué opción preferirías?""}","{""Q0"":"" $100000 ahora""}",""
"","416","ITC_03","ITC","survey-multi-choice-vertical","397","185400","0.0-350.0","{""Q0"":""3. ¿Qué opción preferirías?""}","{""Q0"":"" $100000 ahora""}",""
"","451","ITC_04","ITC","survey-multi-choice-vertical","398","185853","0.0-351.0","{""Q0"":""4. ¿Qué opción preferirías?""}","{""Q0"":"" $100000 en 10 años""}",""
"","459","ITC_05","ITC","survey-multi-choice-vertical","399","186315","0.0-352.0","{""Q0"":""5. ¿Qué opción preferirías?""}","{""Q0"":"" $1000000 en 10 años""}",""
"","417","ITC_06","ITC","survey-multi-choice-vertical","400","186735","0.0-353.0","{""Q0"":""6. ¿Qué opción preferirías?""}","{""Q0"":"" $100000 ahora""}",""
"","432","ITC_07","ITC","survey-multi-choice-vertical","401","187168","0.0-354.0","{""Q0"":""7. ¿Qué opción preferirías?""}","{""Q0"":"" $400000""}",""
"","413","ITC_08","ITC","survey-multi-choice-vertical","402","187584","0.0-355.0","{""Q0"":""8. ¿Qué opción preferirías?""}","{""Q0"":"" $1000000 ahora""}",""
"","417","ITC_09","ITC","survey-multi-choice-vertical","403","188004","0.0-356.0","{""Q0"":""9. ¿Qué opción preferirías?""}","{""Q0"":"" Un masaje de 30 mins. en dos semanas""}",""
"","403","ITC_10","ITC","survey-multi-choice-vertical","404","188409","0.0-357.0","{""Q0"":""10. ¿Qué opción preferirías?""}","{""Q0"":"" Perder $2000000 el próximo año""}",""
"","415","ITC_11","ITC","survey-multi-choice-vertical","405","188825","0.0-358.0","{""Q0"":""11. ¿Qué opción preferirías?""}","{""Q0"":"" Sacarte un diente en 2 semanas""}",""
"","420.9049999999406","ITC_12","ITC","html-slider-response","406","189247","0.0-359.0","<div class='justified'>12. ¿Cuán impulsivo eres?</div></br>","-4","50"
"","381.04999999995925","ITC_13","ITC","html-slider-response","407","189629","0.0-360.0","<div class='justified'>13. ¿Cuánto tiempo tiendes a procastinar (perder el tiempo cuando tienes que hacer algo importante?</div></br>","-4","50"
"","411.58999999970547","ITC_14","ITC","html-slider-response","408","190042","0.0-361.0","<div class='justified'>14. ¿Cuánto piensas en tu futuro?</div></br>","-4","50"
"","517","ITC_15","ITC","survey-multi-choice-vertical","409","190562","0.0-362.0","{""Q0"":""15. Te has encontrado una billetera en cuyo interior hay una suma grande de dinero y la identificación del dueño. ¿Qué crees que harías?""}","{""Q0"":"" Devuelves la billetera sin dejar que el dueño sepa quien eres""}",""
"","513","ITC_16","ITC","survey-multi-choice-vertical","410","191077","0.0-363.0","{""Q0"":""16. Un(a) niño(a) andando en triciclo pasa por tu casa aparentando estar perdido.  ¿Qué crees que harías?""}","{""Q0"":"" Le preguntas al niño(a) donde vive y lo llevas a su casa""}",""
"","528","ITC_17","ITC","survey-multi-choice-vertical","411","191609","0.0-364.0","{""Q0"":""17. ¿Qué sería más probable que hicieras un sábado por la tarde?""}","{""Q0"":"" Ir a ver una película solo""}",""
"","521","ITC_18","ITC","survey-multi-choice-vertical","412","192132","0.0-365.0","{""Q0"":""18. Un hombre que no habla español se te acerca en la calle apartentemente por necesita ayuda. ¿Qué crees que harías?""}","{""Q0"":"" Haces como si no lo hubieras escuchado""}",""
"","515","ITC_19","ITC","survey-multi-choice-vertical","413","192649","0.0-366.0","{""Q0"":""19. La noche anterior a un importante examen un compañero te muestra una copia robada de la prueba.  ¿Qué crees que harías?""}","{""Q0"":"" Te niegas a ver el examen robado y no le dices nada al profesor""}",""
"","542","ITC_20","ITC","survey-multi-choice-vertical","414","193195","0.0-367.0","{""Q0"":""20. En una situación en la que podrías cooperar, pero preferirías no hacerlo:""}","{""Q0"":"" Simplemente no lo hago""}",""
"","529","ITC_21","ITC","survey-multi-choice-vertical","415","193727","0.0-368.0","{""Q0"":""21. Un amigo(a) te pide prestado(a) una prenda de ropa.  ¿Qué crees que harías?""}","{""Q0"":"" Se la prestas si es que tú podrías pedirle a cambio algo en otra oportunidad""}",""
"","502","ITC_22","ITC","survey-multi-choice-vertical","416","194232","0.0-369.0","{""Q0"":""22. Un(a) compañero(a) de tu clase está teniendo un problema en su casa y en su rendimiento universitario . ¿Qué crees que harías?""}","{""Q0"":"" Dejas a la persona sola resolviendo sus propios problemas""}",""
"","535","ITC_23","ITC","survey-multi-choice-vertical","417","194770","0.0-370.0","{""Q0"":""23. Estás en el segundo piso de un edificio y notas a un hombre con problemas de equililbrio y apartentando estar en problemas. ¿Qué crees que harías?""}","{""Q0"":"" Llamas a la policia temiendo algún posible peligro""}",""
"","518","ITC_24","ITC","survey-multi-choice-vertical","418","195290","0.0-371.0","{""Q0"":""24. Estando solo(a) en tu casa, escuchas afuera a una mujer pidiendo ayuda. ¿Qué crees que harías?""}","{""Q0"":"" Estás seguro de que alquien más ha escuchado por lo que esperas""}",""
"","636","ITC_25","ITC","survey-multi-choice-vertical","419","195930","0.0-372.0","{""Q0"":""25. Yendo hacia la universidad ve a una persona de tu mismo sexo y similar edad con problemas en su auto. ¿Qué crees que harías?""}","{""Q0"":"" Continúas tu viaje""}",""
"","520","ITC_26","ITC","survey-multi-choice-vertical","420","196454","0.0-373.0","{""Q0"":""26. Cuando eres requerido(a) como voluntario(a) para una tarea en la que no recibirás pago. ¿Qué crees que harías?""}","{""Q0"":"" Explicas que no estás de acuerdo con los objetivos que se buscan por lo que no podrás participar""}",""
"","532","ITC_27","ITC","survey-multi-choice-vertical","421","196990","0.0-374.0","{""Q0"":""27. Una anciana parada en una esquina aparenta estar perdida. ¿Qué crees que harías?""}","{""Q0"":"" La dejas sola, temiendo que ella pueda pensar que eres un ladrón(a) si vas a ayudar""}",""
"","483","ITC_28","ITC","survey-multi-choice-vertical","422","197475","0.0-375.0","{""Q0"":""28. Un grupo de compañeros tuyos organizó un evento de llamado \""como todo lo que puedas\"" a beneficiencia de una institución de caridad. ¿Qué crees que harías?""}","{""Q0"":"" Compras la entrada y comes todo lo que puedas (como sugiere el nombre del evento)""}",""
"","520","ITC_29","ITC","survey-multi-choice-vertical","423","198000","0.0-376.0","{""Q0"":""29. Una persona \""hace dedo\"" tarde en la noche. Está lloviendo y hay pocos autos en el camino. ¿Qué crees que harías?""}","{""Q0"":"" Continúas manejando y evitas mirar a la persona""}",""
"","539","ITC_30","ITC","survey-multi-choice-vertical","424","198542","0.0-377.0","{""Q0"":""30. Estás en una sala de espera con otra persona. Si escuchas un grito en la sala de al lado y la otra persona no hace nada. ¿Qué crees que harías?""}","{""Q0"":"" Esperas a ver si los gritos continuan""}",""
"","541","ITC_31","ITC","survey-multi-choice-vertical","425","199085","0.0-378.0","{""Q0"":""31. ¿A cual grupo sería más probable que te unas?""}","{""Q0"":"" A un club dedicado a actividades de ocio""}",""
"","515","ITC_32","ITC","survey-multi-choice-vertical","426","199604","0.0-379.0","{""Q0"":""32. En una calle desierta una persona pobremente vestida te pide una moneda. ¿Qué crees que harías?""}","{""Q0"":"" Le das la moneda sin hacer preguntas""}",""
"","541","ITC_33","ITC","survey-multi-choice-vertical","427","200149","0.0-380.0","{""Q0"":""33. ¿Cuál de las siguientes alternativas te prepresenta mejor?""}","{""Q0"":"" Solucionar tus propios problemas sin ayuda del resto""}",""
"","533","ITC_34","ITC","survey-multi-choice-vertical","428","200686","0.0-381.0","{""Q0"":""34. Si eres requerido(a) como voluntario (a) para una causa social por la que recibirás pago. ¿Qué crees que harías?""}","{""Q0"":"" No serías voluntario(a)""}",""
"","527","ITC_35","ITC","survey-multi-choice-vertical","429","201216","0.0-382.0","{""Q0"":""35. Un amigo de otra universidad visita a tu compañero de pieza el fin de semana. El quiere usar tu ticket de almuerzo para comer en la cafetería gratis. ¿Qué crees que harías?""}","{""Q0"":"" Finges que no tienes tu ticket de almuerzo""}",""
