"view_history","rt","trialid","procedure","trial_type","trial_index","time_elapsed","internal_node_id","stimulus","response"
"[{""page_index"":0,""viewing_time"":424}]","424","Instructions_01","RTS","instructions","727","810405","0.0-691.0","",""
"","1142","RTS_01","RTS","survey-multi-choice-vertical","728","811554","0.0-692.0","{""Q0"":""1. Los horóscopos tienen razón con demasiada frecuencia para que sea una coincidencia.""}","{""Q0"":"" Verdadero""}"
"","855","RTS_02","RTS","survey-multi-choice-vertical","729","812416","0.0-693.0","{""Q0"":""2. A veces realizo ciertos pequeños rituales para alejarme de las influencias negativas.""}","{""Q0"":"" Falso""}"
"","1008","RTS_03","RTS","survey-multi-choice-vertical","730","813430","0.0-694.0","{""Q0"":""3. He experimentado un estado alterado de conciencia en el que sentí que me volví cósmicamente iluminado.""}","{""Q0"":"" Verdadero""}"
"","741","RTS_04","RTS","survey-multi-choice-vertical","731","814177","0.0-695.0","{""Q0"":""4. En la actualidad, soy muy bueno imaginando y haciendo cosas.""}","{""Q0"":"" Verdadero""}"
"","928","RTS_05","RTS","survey-multi-choice-vertical","732","815109","0.0-696.0","{""Q0"":""5. He sentido que había recibido una sabiduría especial, para ser comunicada al resto de la humanidad.""}","{""Q0"":"" Verdadero""}"
"","871","RTS_06","RTS","survey-multi-choice-vertical","733","815984","0.0-697.0","{""Q0"":""6. A veces me he comportado de una manera mucho más impulsiva y/o desinhibida que de costumbre.""}","{""Q0"":"" Verdadero""}"
"","806","RTS_07","RTS","survey-multi-choice-vertical","734","816794","0.0-698.0","{""Q0"":""7. Me fascinan las nuevas ideas, tengan o no un valor práctico.""}","{""Q0"":"" Verdadero""}"
"","996","RTS_08","RTS","survey-multi-choice-vertical","735","817794","0.0-699.0","{""Q0"":""8. A veces he sentido una presencia maligna a mi alrededor, aunque no pude verla.""}","{""Q0"":"" Verdadero""}"
"","650","RTS_09","RTS","survey-multi-choice-vertical","736","818448","0.0-700.0","{""Q0"":""9. Mis pensamientos a veces han llegado tan rápido que no podía escribirlos todos lo suficientemente rápido.""}","{""Q0"":"" Falso""}"
"","773","RTS_10","RTS","survey-multi-choice-vertical","737","819226","0.0-701.0","{""Q0"":""10. Si ya no pudiera fingir, no sería yo, no sería la misma persona.""}","{""Q0"":"" Verdadero""}"
"","733","RTS_11","RTS","survey-multi-choice-vertical","738","819961","0.0-702.0","{""Q0"":""11. A veces experimento cosas como si fueran doblemente reales.""}","{""Q0"":"" Falso""}"
"","647","RTS_12","RTS","survey-multi-choice-vertical","739","820612","0.0-703.0","{""Q0"":""12. A veces es posible para mí estar completamente inmerso en la naturaleza o en el arte y sentir como si todo mi estado de conciencia se hubiera alterado temporalmente de alguna manera.""}","{""Q0"":"" Verdadero""}"
"","834","RTS_13","RTS","survey-multi-choice-vertical","740","821451","0.0-704.0","{""Q0"":""13. A menudo tengo un día en que las luces en espacios interiores parecen tan brillantes que me molestan los ojos.""}","{""Q0"":"" Falso""}"
"","680","RTS_14","RTS","survey-multi-choice-vertical","741","822134","0.0-705.0","{""Q0"":""14. Estoy convencido de que he tenido al menos una experiencia de telepatía entre otra persona y yo.""}","{""Q0"":"" Verdadero""}"
"","730","RTS_15","RTS","survey-multi-choice-vertical","742","822868","0.0-706.0","{""Q0"":""15. Estoy convencido de que soy psíquico.""}","{""Q0"":"" Falso""}"
"","796","RTS_16","RTS","survey-multi-choice-vertical","743","823669","0.0-707.0","{""Q0"":""16. He experimentado un estado alterado de conciencia que creo que transformó por completo (de manera positiva) la forma en que me miraba a mí mismo.""}","{""Q0"":"" Verdadero""}"
"","697","RTS_17","RTS","survey-multi-choice-vertical","744","824369","0.0-708.0","{""Q0"":""17. Estoy convencido de que he tenido un presentimiento sobre el futuro que se hizo realidad y que (creo) no fue solo una coincidencia.""}","{""Q0"":"" Verdadero""}"
"","925","RTS_18","RTS","survey-multi-choice-vertical","745","825298","0.0-709.0","{""Q0"":""18. Creo que realmente sé lo que algunas personas quieren decir cuando hablan de experiencias místicas.""}","{""Q0"":"" Verdadero""}"
"","677","RTS_19","RTS","survey-multi-choice-vertical","746","825980","0.0-710.0","{""Q0"":""19. He pasado por momentos en los que los olores parecían más fuertes y abrumadores de lo habitual.""}","{""Q0"":"" Verdadero""}"
"","877","RTS_20","RTS","survey-multi-choice-vertical","747","826861","0.0-711.0","{""Q0"":""20. Puedo sentir claramente de nuevo (revivir) en mi imaginación cosas tales como: la sensación de una suave brisa, arena cálida bajo los pies descalzos, la suavidad del pelaje, la hierba fresca, el calor del sol y el olor a hierba recién cortada.""}","{""Q0"":"" Verdadero""}"
"","910","RTS_21","RTS","survey-multi-choice-vertical","748","827776","0.0-712.0","{""Q0"":""21. Una persona debe tratar de comprender sus sueños y dejarse guiar por ellos o recibir advertencias de ellos.""}","{""Q0"":"" Falso""}"
"","637","RTS_22","RTS","survey-multi-choice-vertical","749","828417","0.0-713.0","{""Q0"":""22. Mientras escucho mi música favorita, además de sentirme tranquilo, relajado, feliz, etc., a menudo tengo un sentimiento de unidad con la música, o de estar en otro lugar o tiempo, o de recordar vívidamente el pasado. ""}","{""Q0"":"" Falso""}"
"","799","RTS_23","RTS","survey-multi-choice-vertical","750","829220","0.0-714.0","{""Q0"":""23. A veces siento de alguna manera la presencia de alguien que no está físicamente allí.""}","{""Q0"":"" Verdadero""}"
"","690","RTS_24","RTS","survey-multi-choice-vertical","751","829913","0.0-715.0","{""Q0"":""24. Estoy convencido de que es posible obtener información sobre los pensamientos, sentimientos o circunstancias de otra persona, de una manera que no depende de la predicción racional o de los canales sensoriales normales.""}","{""Q0"":"" Verdadero""}"
"","659","RTS_25","RTS","survey-multi-choice-vertical","752","830576","0.0-716.0","{""Q0"":""25. Durante varios días seguidos he tenido una conciencia tan elevada de las imágenes y los sonidos que no puedo ignorarlos.""}","{""Q0"":"" Verdadero""}"
"","843","RTS_26","RTS","survey-multi-choice-vertical","753","831422","0.0-717.0","{""Q0"":""26. A veces tengo la sensación de ganar o perder energía cuando ciertas personas me miran o me tocan.""}","{""Q0"":"" Verdadero""}"
"","678","RTS_27","RTS","survey-multi-choice-vertical","754","832104","0.0-718.0","{""Q0"":""27. Ahora que soy mayor, todavía creo de alguna manera en seres como elfos, brujas, duendes, hadas, etc.""}","{""Q0"":"" Falso""}"
"","816","RTS_28","RTS","survey-multi-choice-vertical","755","832924","0.0-719.0","{""Q0"":""28. A veces la gente piensa que soy un poco raro porque mis ideas son muy novedosas.""}","{""Q0"":"" Falso""}"
"","823","RTS_29","RTS","survey-multi-choice-vertical","756","833751","0.0-720.0","{""Q0"":""29. Cuando escucho música de órgano u otra música potente, a veces siento como si me elevaran en el aire.""}","{""Q0"":"" Verdadero""}"
