"view_history","rt","trialid","procedure","trial_type","trial_index","time_elapsed","internal_node_id","stimulus","button_pressed","condition_within","slider_start","response"
"[{""page_index"":0,""viewing_time"":256},{""page_index"":1,""viewing_time"":255}]","511","Instructions","HRPVBpost","instructions","264","132557","0.0-245.0","","","","",""
"[{""page_index"":0,""viewing_time"":244}]","245","Instructions_01","HRPVBpost","instructions","265","132802","0.0-246.0","","","","",""
"","226.85000000000582","HRPVBpost_03_00","HRPVBpost","html-button-response","266","133030","0.0-247.0-0.0","Hospitalización en cuidados intensivos neonatales","0","Hospitalización en cuidados intensivos neonatales","",""
"","372.4149999998335","HRPVBpost_03_02","HRPVBpost","html-slider-response","267","133403","0.0-247.0-1.0","vaginal","","Hospitalización en cuidados intensivos neonatales; vaginal","50","45.8"
"","377.7099999997299","HRPVBpost_03_01","HRPVBpost","html-slider-response","268","133782","0.0-247.0-2.0","cesarea","","Hospitalización en cuidados intensivos neonatales; cesarea","50","52.4"
"","229.89500000039698","HRPVBpost_01_00","HRPVBpost","html-button-response","269","134013","0.0-247.0-0.1","Problemas respiratorios del recién nacido","0","Problemas respiratorios del recién nacido","",""
"","368.5049999994517","HRPVBpost_01_02","HRPVBpost","html-slider-response","270","134383","0.0-247.0-1.1","vaginal","","Problemas respiratorios del recién nacido; vaginal","50","47.8"
"","354.2950000001001","HRPVBpost_01_01","HRPVBpost","html-slider-response","271","134739","0.0-247.0-2.1","cesarea","","Problemas respiratorios del recién nacido; cesarea","50","49.2"
"","235.7750000001106","HRPVBpost_04_00","HRPVBpost","html-button-response","272","134975","0.0-247.0-0.2","Dificultades para inicio temprano de lactancia materna","0","Dificultades para inicio temprano de lactancia materna","",""
"","378.3499999999767","HRPVBpost_04_01","HRPVBpost","html-slider-response","273","135355","0.0-247.0-1.2","cesarea","","Dificultades para inicio temprano de lactancia materna; cesarea","50","47.4"
"","372.5199999998731","HRPVBpost_04_02","HRPVBpost","html-slider-response","274","135729","0.0-247.0-2.2","vaginal","","Dificultades para inicio temprano de lactancia materna; vaginal","50","45.8"
"","218.41499999936786","HRPVBpost_02_00","HRPVBpost","html-button-response","275","135948","0.0-247.0-0.3","Lesión en el cerebro del bebe por falta de oxígeno","0","Lesión en el cerebro del bebe por falta de oxígeno","",""
"","344.4500000005064","HRPVBpost_02_02","HRPVBpost","html-slider-response","276","136294","0.0-247.0-1.3","vaginal","","Lesión en el cerebro del bebe por falta de oxígeno; vaginal","50","50.3"
"","356.9050000005518","HRPVBpost_02_01","HRPVBpost","html-slider-response","277","136652","0.0-247.0-2.3","cesarea","","Lesión en el cerebro del bebe por falta de oxígeno; cesarea","50","47.9"
"[{""page_index"":0,""viewing_time"":237}]","237","Instructions_02","HRPVBpost","instructions","278","136889","0.0-248.0","","","","",""
"","230.1149999993795","HRPVBpost_10_00","HRPVBpost","html-button-response","279","137120","0.0-249.0-0.0","Hospitalización de la madre en cuidados intensivos","0","Hospitalización de la madre en cuidados intensivos","",""
"","369.8100000001432","HRPVBpost_10_02","HRPVBpost","html-slider-response","280","137491","0.0-249.0-1.0","vaginal","","Hospitalización de la madre en cuidados intensivos; vaginal","50","54.2"
"","366.21999999988475","HRPVBpost_10_01","HRPVBpost","html-slider-response","281","137858","0.0-249.0-2.0","cesarea","","Hospitalización de la madre en cuidados intensivos; cesarea","50","52.4"
"","231.11999999947147","HRPVBpost_07_00","HRPVBpost","html-button-response","282","138090","0.0-249.0-0.1","Histerectomía (extracción del útero)","0","Histerectomía (extracción del útero)","",""
"","363.2599999991653","HRPVBpost_07_02","HRPVBpost","html-slider-response","283","138455","0.0-249.0-1.1","vaginal","","Histerectomía (extracción del útero); vaginal","50","50.1"
"","368.51499999919906","HRPVBpost_07_01","HRPVBpost","html-slider-response","284","138825","0.0-249.0-2.1","cesarea","","Histerectomía (extracción del útero); cesarea","50","50.6"
"","334.370000000461","HRPVBpost_05_00","HRPVBpost","html-button-response","285","139160","0.0-249.0-0.2","Complicaciones de la anestesia","0","Complicaciones de la anestesia","",""
"","349.9099999999162","HRPVBpost_05_02","HRPVBpost","html-slider-response","286","139512","0.0-249.0-1.2","vaginal","","Complicaciones de la anestesia; vaginal","50","48.6"
"","346.20499999981257","HRPVBpost_05_01","HRPVBpost","html-slider-response","287","139859","0.0-249.0-2.2","cesarea","","Complicaciones de la anestesia; cesarea","50","48.9"
"","221.61500000036904","HRPVBpost_11_00","HRPVBpost","html-button-response","288","140082","0.0-249.0-0.3","Depresión post parto","0","Depresión post parto","",""
"","366.39999999990687","HRPVBpost_11_02","HRPVBpost","html-slider-response","289","140449","0.0-249.0-1.3","vaginal","","Depresión post parto; vaginal","50","45.1"
"","361.5250000002561","HRPVBpost_11_01","HRPVBpost","html-slider-response","290","140812","0.0-249.0-2.3","cesarea","","Depresión post parto; cesarea","50","51.6"
"","231.56999999991967","HRPVBpost_09_00","HRPVBpost","html-button-response","291","141045","0.0-249.0-0.4","Lesión de la vagina","0","Lesión de la vagina","",""
"","347.1700000000128","HRPVBpost_09_02","HRPVBpost","html-slider-response","292","141393","0.0-249.0-1.4","vaginal","","Lesión de la vagina; vaginal","50","51.8"
"","368.0400000002992","HRPVBpost_09_01","HRPVBpost","html-slider-response","293","141762","0.0-249.0-2.4","cesarea","","Lesión de la vagina; cesarea","50","54.3"
"","234.00000000037835","HRPVBpost_06_00","HRPVBpost","html-button-response","294","141997","0.0-249.0-0.5","Paro cardíaco","0","Paro cardíaco","",""
"","407.4150000005611","HRPVBpost_06_01","HRPVBpost","html-slider-response","295","142406","0.0-249.0-1.5","cesarea","","Paro cardíaco; cesarea","50","52.8"
"","364.92499999984284","HRPVBpost_06_02","HRPVBpost","html-slider-response","296","142772","0.0-249.0-2.5","vaginal","","Paro cardíaco; vaginal","50","45.9"
"","233.5300000004063","HRPVBpost_08_00","HRPVBpost","html-button-response","297","143007","0.0-249.0-0.6","Infección de la herida","0","Infección de la herida","",""
"","368.8649999994377","HRPVBpost_08_01","HRPVBpost","html-slider-response","298","143377","0.0-249.0-1.6","cesarea","","Infección de la herida; cesarea","50","54.6"
"","361.38500000018394","HRPVBpost_08_02","HRPVBpost","html-slider-response","299","143739","0.0-249.0-2.6","vaginal","","Infección de la herida; vaginal","50","51.4"
