"view_history","rt","trialid","procedure","trial_type","trial_index","time_elapsed","internal_node_id","stimulus","slider_start","response"
"[{""page_index"":0,""viewing_time"":369}]","369","Instructions","REI40","instructions","639","366420","0.0-599.0","","",""
"","480.13500000024214","REI40_40","REI40","html-slider-response","640","366902","0.0-600.0","<div class='justified'>Me gustaría mucho aprender nuevas formas de pensar.</div></br>","50","1"
"","439.24500000005355","REI40_11","REI40","html-slider-response","641","367343","0.0-601.0","<div class='justified'>Disfruto resolviendo problemas que requieren pensar mucho.</div></br>","50","1"
"","438.7200000000885","REI40_35","REI40","html-slider-response","642","367783","0.0-602.0","<div class='justified'>Tiendo a usar mi corazón como guía para mis acciones.</div></br>","50","1"
"","456.5649999999441","REI40_32","REI40","html-slider-response","643","368241","0.0-603.0","<div class='justified'>Disfruto pensando en términos abstractos.</div></br>","50","1"
"","597.5149999999558","REI40_04","REI40","html-slider-response","644","368840","0.0-604.0","<div class='justified'>Generalmente, no dependo de mis sentimientos para tomar decisiones.</div></br>","50","1"
"","450.62999999983003","REI40_16","REI40","html-slider-response","645","369292","0.0-605.0","<div class='justified'>No quisiera depender de alguien que se describa a sí mismo como intuitivo.</div></br>","50","1"
"","415.48499999998603","REI40_37","REI40","html-slider-response","646","369708","0.0-606.0","<div class='justified'>Casi nunca me equivoco cuando escucho mis sentimientos más profundos para encontrar una respuesta.</div></br>","50","1"
"","449.3000000002212","REI40_39","REI40","html-slider-response","647","370159","0.0-607.0","<div class='justified'>La intuición puede ser una forma útil para resolver problemas.</div></br>","50","1"
"","440.5599999999977","REI40_17","REI40","html-slider-response","648","370601","0.0-608.0","<div class='justified'>generalmente usar la lógica me sirve para resolver mis problemas.</div></br>","50","1"
"","405.3000000003376","REI40_31","REI40","html-slider-response","649","371008","0.0-609.0","<div class='justified'>Creo que hay veces en que uno debería confiar en su intuición.</div></br>","50","1"
"","423.0800000000163","REI40_30","REI40","html-slider-response","650","371433","0.0-610.0","<div class='justified'>No soy muy bueno resolviendo problemas que requieren un análisis lógico minucioso.</div></br>","50","1"
"","434.8450000002631","REI40_22","REI40","html-slider-response","651","371869","0.0-611.0","<div class='justified'>Razonar las cosas cuidadosamente, no es uno de mis puntos fuertes.</div></br>","50","1"
"","423.11000000016065","REI40_28","REI40","html-slider-response","652","372293","0.0-612.0","<div class='justified'>No me gusta tener que pensar mucho.</div></br>","50","1"
"","411.7200000000885","REI40_09","REI40","html-slider-response","653","372706","0.0-613.0","<div class='justified'>No soy una persona que piense de manera muy analítica.</div></br>","50","1"
"","426.0950000002631","REI40_18","REI40","html-slider-response","654","373134","0.0-614.0","<div class='justified'>Disfruto de los desafíos intelectuales.</div></br>","50","1"
"","402.4399999998277","REI40_06","REI40","html-slider-response","655","373537","0.0-615.0","<div class='justified'>Cuando se trata de confiar en la gente, usualmente me baso en mis corazonadas.</div></br>","50","1"
"","404.2750000003143","REI40_05","REI40","html-slider-response","656","373943","0.0-616.0","<div class='justified'>No tengo problema en pensar las cosas con claridad.</div></br>","50","1"
"","434.66999999963446","REI40_33","REI40","html-slider-response","657","374379","0.0-617.0","<div class='justified'>Generalmente mis intuiciones me sirven para resolver mis problemas.</div></br>","50","1"
"","432.58500000002095","REI40_29","REI40","html-slider-response","658","374813","0.0-618.0","<div class='justified'>No tengo muy buena intuición.</div></br>","50","1"
"","446.8299999998417","REI40_15","REI40","html-slider-response","659","375261","0.0-619.0","<div class='justified'>Para mí es suficiente conocer la respuesta sin tener que entender el razonamiento detrás.</div></br>","50","1"
"","422.0350000000326","REI40_34","REI40","html-slider-response","660","375684","0.0-620.0","<div class='justified'>No razono bajo presión.</div></br>","50","1"
"","409.52000000019325","REI40_02","REI40","html-slider-response","661","376095","0.0-621.0","<div class='justified'>Si me basara en mis corazonadas, me equivocaría seguido.</div></br>","50","1"
"","436.72999999992317","REI40_26","REI40","html-slider-response","662","376534","0.0-622.0","<div class='justified'>Pienso de manera lógica.</div></br>","50","1"
"","440.4049999998533","REI40_21","REI40","html-slider-response","663","376975","0.0-623.0","<div class='justified'>Probablemente, mis juicios apresurados no son tan buenos como los de la mayoría de la gente.</div></br>","50","1"
"","429.4100000002072","REI40_01","REI40","html-slider-response","664","377406","0.0-624.0","<div class='justified'>No soy tan bueno/a resolviendo problemas complicados.</div></br>","50","1"
"","423.4750000000349","REI40_03","REI40","html-slider-response","665","377831","0.0-625.0","<div class='justified'>Prefiero los problemas complejos antes que los simples.</div></br>","50","1"
"","414.16500000015367","REI40_25","REI40","html-slider-response","666","378247","0.0-626.0","<div class='justified'>Confío en mis sentimientos iniciales sobre la gente.</div></br>","50","1"
"","406.554999999993","REI40_23","REI40","html-slider-response","667","378654","0.0-627.0","<div class='justified'>No me gustan las situaciones en las cuales tengo que confiar en mi intuición.</div></br>","50","1"
"","415.37499999959255","REI40_36","REI40","html-slider-response","668","379071","0.0-628.0","<div class='justified'>Pensar mucho y por un tiempo prolongado sobre algo me da poca satisfacción.</div></br>","50","1"
"","424.59499999997206","REI40_13","REI40","html-slider-response","669","379497","0.0-629.0","<div class='justified'>Sospecho que mis corazonadas a veces son inadecuadas y otras veces adecuadas.</div></br>","50","1"
"","433.57500000001164","REI40_20","REI40","html-slider-response","670","379932","0.0-630.0","<div class='justified'>Frecuentemente sigo mi instinto cuando decido qué hacer.</div></br>","50","1"
"","412.7400000002235","REI40_07","REI40","html-slider-response","671","380346","0.0-631.0","<div class='justified'>Pensar no es para mi una actividad agradable.</div></br>","50","1"
"","401.43499999976484","REI40_10","REI40","html-slider-response","672","380748","0.0-632.0","<div class='justified'>Yo confío en mis corazonadas.</div></br>","50","1"
"","411.9100000002654","REI40_24","REI40","html-slider-response","673","381161","0.0-633.0","<div class='justified'>Trato de evitar situaciones que requieren pensar en profundidad sobre algo.</div></br>","50","1"
"","413.6549999998533","REI40_38","REI40","html-slider-response","674","381576","0.0-634.0","<div class='justified'>Soy mucho mejor que la mayoría de la gente para resolver las cosas de forma lógica.</div></br>","50","1"
"","409.734999999695","REI40_14","REI40","html-slider-response","675","381987","0.0-635.0","<div class='justified'>Usualmente tengo razones claras y explicables para mis decisiones.</div></br>","50","1"
"","402.86000000016065","REI40_08","REI40","html-slider-response","676","382392","0.0-636.0","<div class='justified'>Me gusta confiar en mis primeras impresiones.</div></br>","50","1"
"","406.93000000010943","REI40_19","REI40","html-slider-response","677","382800","0.0-637.0","<div class='justified'>Generalmente, puedo sentir cuando una persona está equivocada o no a pesar de no poder explicar cómo lo sé.</div></br>","50","1"
"","434.1649999996298","REI40_27","REI40","html-slider-response","678","383236","0.0-638.0","<div class='justified'>Pienso que no es una buena idea confiar en las propias intuiciones para tomar decisiones importantes.</div></br>","50","1"
"","471.9149999996298","REI40_12","REI40","html-slider-response","679","383710","0.0-639.0","<div class='justified'>Creo que es una tontería tomar decisiones basadas en los sentimientos.</div></br>","50","1"
