view_history,rt,trialid,trial_type,trial_index,time_elapsed,internal_node_id,stimulus,responses,correction,inverse,
"[{""page_index"":0,""viewing_time"":16192}]",16193,Instructions,instructions,0,16195,0.0-0.0,,,,,
,43026.805,IRI_01,html-slider-response,1,59224,0.0-1.0,"{""Q0"":""1.- Con cierta frecuencia sueño despierto y fantaseo sobre cosas que podrían pasarme.""}","{""Q0"":""4""}",4,3,
,8067.025,IRI_02,html-slider-response,2,67293,0.0-2.0,"{""Q0"":""2.- A menudo tengo sentimientos de compasión y preocupación hacia gente menos afortunada que yo.""}","{""Q0"":""5""}",5,4,
,13348.045,IRI_03,html-slider-response,3,80642,0.0-3.0,"{""Q0"":""3.- A veces encuentro difícil ver las cosas desde el punto de vista de otros.""}","{""Q0"":""2""}",2,3,
,14466.94,IRI_04,html-slider-response,4,95110,0.0-4.0,"{""Q0"":""4.- A veces no me dan mucha lástima otras personas cuando tienen problemas.""}","{""Q0"":""3""}",3,2,
,7232.96,IRI_05,html-slider-response,5,102344,0.0-5.0,"{""Q0"":""5.- Realmente me siento “metido/a” en los sentimientos de los personajes de una novela.""}","{""Q0"":""5""}",5,4,
,18537.01,IRI_06,html-slider-response,6,120882,0.0-6.0,"{""Q0"":""6.- En situaciones de emergencia, me siento aprensivo e incómodo.""}","{""Q0"":""2""}",2,1,
,9789.025,IRI_07,html-slider-response,7,130673,0.0-7.0,"{""Q0"":""7.- Generalmente soy objetivo cuando veo una película o una obra de teatro y no me suelo “meter” completamente en ella.""}","{""Q0"":""2""}",2,3,
,16555.675,IRI_08,html-slider-response,8,147230,0.0-8.0,"{""Q0"":""8.- En un desacuerdo con otros, trato de ver las cosas desde el punto de vista de los demás antes de tomar una decisión.""}","{""Q0"":""4""}",4,3,
,10876.885,IRI_09,html-slider-response,9,158108,0.0-9.0,"{""Q0"":""9.- Cuando veo que se aprovechan de alguien, siento necesidad de protegerle.""}","{""Q0"":""5""}",5,4,
,16166.895,IRI_10,html-slider-response,10,174276,0.0-10.0,"{""Q0"":""10.- A veces me siento indefenso/a cuando estoy en medio de una situación muy emotiva.""}","{""Q0"":""4""}",4,3,
,12009.04,IRI_11,html-slider-response,11,186286,0.0-11.0,"{""Q0"":""11.- A veces intento comprender mejor a mis amigos imaginando cómo ven las cosas desde su perspectiva.""}","{""Q0"":""3""}",3,2,
,5437.585,IRI_12,html-slider-response,12,191725,0.0-12.0,"{""Q0"":""12.- Es raro que yo me “meta” mucho en un buen libro o en una película.""}","{""Q0"":""1""}",1,4,
,17538.71,IRI_13,html-slider-response,13,209265,0.0-13.0,"{""Q0"":""13.- Cuando veo que alguien se hace daño, tiendo a permanecer tranquilo.""}","{""Q0"":""2""}",2,3,
,38202.48,IRI_14,html-slider-response,14,247469,0.0-14.0,"{""Q0"":""14.- Las desgracias de otros no suelen angustiarme mucho.""}","{""Q0"":""2""}",2,3,
,12588.22,IRI_15,html-slider-response,15,260059,0.0-15.0,"{""Q0"":""15.- Si estoy seguro/a que tengo la razón en algo, no pierdo mucho tiempo escuchando los argumentos de otras personas.""}","{""Q0"":""2""}",2,3,
,16520.285,IRI_16,html-slider-response,16,276580,0.0-16.0,"{""Q0"":""16.- Después de ver una obra de teatro o una película, me siento como si fuese uno de los protagonistas.""}","{""Q0"":""4""}",4,3,
,21446.16,IRI_17,html-slider-response,17,298027,0.0-17.0,"{""Q0"":""17.- Me asusta estar en una situación emocional tensa.""}","{""Q0"":""4""}",4,3,
,6639.315,IRI_18,html-slider-response,18,304668,0.0-18.0,"{""Q0"":""18.- Cuando veo que alguien está siendo tratado injustamente, no suelo sentir mucha pena por él.""}","{""Q0"":""1""}",1,4,
,18449.02,IRI_19,html-slider-response,19,323118,0.0-19.0,"{""Q0"":""19.- Generalmente soy bastante efectivo afrontando emergencias.""}","{""Q0"":""4""}",4,1,
,10737.47,IRI_20,html-slider-response,20,333857,0.0-20.0,"{""Q0"":""20.- A menudo me conmueven las cosas que veo que pasan.""}","{""Q0"":""4""}",4,3,
,33895.095,IRI_21,html-slider-response,21,367753,0.0-21.0,"{""Q0"":""21.- Creo que todas las cuestiones se pueden ver desde dos perspectivas e intento considerar ambas.""}","{""Q0"":""3""}",3,2,
,8547.43,IRI_22,html-slider-response,22,376302,0.0-22.0,"{""Q0"":""22.- Me describiría como una persona bastante sensible.""}","{""Q0"":""4""}",4,3,
,14382.38,IRI_23,html-slider-response,23,390687,0.0-23.0,"{""Q0"":""23.- Cuando veo una buena película, puedo ponerme muy fácilmente en el lugar del protagonista.""}","{""Q0"":""3""}",3,2,
,5781.57,IRI_24,html-slider-response,24,396470,0.0-24.0,"{""Q0"":""24.- Tiendo a perder el control en las emergencias.""}","{""Q0"":""1""}",1,0,
,29683.77,IRI_25,html-slider-response,25,426156,0.0-25.0,"{""Q0"":""25.- Cuando estoy molesto con alguien, generalmente trato de \""ponerme en su pellejo\"" durante un tiempo.""}","{""Q0"":""4""}",4,3,
,17940.465,IRI_26,html-slider-response,26,444098,0.0-26.0,"{""Q0"":""26.- Cuando estoy leyendo una novela o historia interesante, imagino cómo me sentiría si me estuviera pasando lo que ocurre en la historia.""}","{""Q0"":""4""}",4,3,
,10798.69,IRI_27,html-slider-response,27,454898,0.0-27.0,"{""Q0"":""27.- Cuando veo a alguien en una emergencia que necesita ayuda, pierdo el control.""}","{""Q0"":""1""}",1,0,
,25214.83,IRI_28,html-slider-response,28,480115,0.0-28.0,"{""Q0"":""28.- Antes de criticar a alguien, intento imaginar cómo me sentiría yo si estuviera en su lugar.""}","{""Q0"":""4""}",4,3,
,,IRI_TomaPerspectiva_DIRd,,,,,,,,19,
,,IRI_Fantasia_DIRd,,,,,,,,22,
,,IRI_PreocupacionEmpatica_DIRd,,,,,,,,23,
,,IRI_IncomodidadPersonal_DIRd,,,,,,,,11,
,,IRI_DIRt,,,,,,,,75,
